millis,id,ax,ay,az,gx,gy,gz,mx,my,mz
1,1,-0.180060,0.883550,9.904491,0.021686,0.037263,-0.018631,1.198480,35.194389,-1.096171
1,2,-0.183051,0.087338,9.769297,0.039401,0.025351,-0.072998,6.182403,33.016662,-57.088573
46,1,-0.197408,0.856032,10.023535,0.026420,0.040470,-0.018479,0.818474,35.501316,-1.271558
46,2,-0.160917,0.078963,9.765110,0.037263,0.020922,-0.071319,6.284712,32.870502,-58.140892
92,1,-0.218345,0.854836,9.869795,0.021838,0.041081,-0.019395,1.417714,36.159019,-1.534639
92,2,-0.183051,0.073579,9.844073,0.037110,0.022907,-0.072540,6.547793,32.636657,-57.965503
138,1,-0.201595,0.890728,10.022338,0.020159,0.034972,-0.019700,0.555393,36.188247,-1.710026
138,2,-0.153141,0.087936,9.772289,0.036041,0.022907,-0.069180,6.474715,32.373573,-57.848583
184,1,-0.204586,0.867398,9.973883,0.025045,0.037263,-0.020006,0.643087,35.457466,-1.739258
184,2,-0.154935,0.066401,9.805788,0.038332,0.022907,-0.074067,6.650102,32.315109,-57.702426
230,1,-0.170489,0.867398,9.987045,0.021075,0.040317,-0.023060,1.052324,35.764396,-1.563870
230,2,-0.151944,0.077767,9.790234,0.031765,0.024740,-0.071624,6.533177,32.841274,-57.424728
275,1,-0.210568,0.860818,9.964313,0.023518,0.037263,-0.018631,1.183864,35.399005,-1.666180
275,2,-0.163908,0.081356,9.798609,0.035125,0.020006,-0.068417,6.664718,33.352821,-56.840103
321,1,-0.203390,0.861416,9.984053,0.019548,0.038026,-0.021075,0.774627,35.282081,-1.446945
321,2,-0.150150,0.078365,9.811171,0.032529,0.026573,-0.072846,6.708565,32.388191,-57.819347
367,1,-0.209372,0.845265,9.961919,0.021838,0.037874,-0.016799,0.789243,35.647472,-0.438468
367,2,-0.162712,0.088534,9.775279,0.041844,0.022755,-0.073151,6.825489,32.943580,-57.527042
413,1,-0.181855,0.853639,10.001400,0.023518,0.039859,-0.021533,1.066940,35.559776,-1.110786
413,2,-0.166899,0.098106,9.815359,0.035125,0.023366,-0.072388,6.679334,33.031280,-57.717044
458,1,-0.214756,0.856032,9.989438,0.018326,0.037721,-0.020159,0.555393,35.267467,-1.768489
458,2,-0.163908,0.081954,9.801002,0.037415,0.023824,-0.067653,6.445484,33.206665,-57.527042
505,1,-0.183649,0.850648,9.988241,0.024435,0.038637,-0.020617,0.789243,35.472084,-1.929260
505,2,-0.176471,0.072383,9.807582,0.031154,0.025809,-0.070708,7.000877,33.513595,-58.696289
551,1,-0.177069,0.862613,10.004991,0.028100,0.040164,-0.019853,1.008477,35.559776,-1.636948
551,2,-0.161516,0.074776,9.790234,0.035736,0.025198,-0.072388,7.015493,32.987430,-57.848583
597,1,-0.208774,0.852443,9.991232,0.022449,0.038485,-0.022602,0.672318,35.442852,-1.695411
597,2,-0.184846,0.075374,9.809975,0.034361,0.024740,-0.072998,6.840106,32.622039,-58.783985
643,1,-0.192622,0.854836,9.988241,0.019700,0.038332,-0.021838,1.417714,35.705932,-2.016954
643,2,-0.162114,0.071785,9.657433,0.037874,0.026878,-0.072235,6.591639,32.870502,-57.877815
688,1,-0.202792,0.859622,9.991232,0.018937,0.039401,-0.019242,1.110786,35.969017,-1.622333
688,2,-0.178265,0.083151,9.803395,0.034972,0.021838,-0.071013,6.372406,32.987430,-58.067817
734,1,-0.206979,0.865604,9.990633,0.024893,0.037568,-0.019090,1.578486,35.486701,-1.841567
734,2,-0.183051,0.080758,9.795619,0.034208,0.025656,-0.072540,6.328559,32.797428,-58.827827
780,1,-0.196211,0.871586,9.979267,0.024740,0.039401,-0.017562,0.803858,35.691318,-1.505408
780,2,-0.176471,0.090927,9.824333,0.040164,0.021838,-0.071929,6.562409,33.206665,-57.907043
826,1,-0.185444,0.864407,10.006187,0.023060,0.038637,-0.016799,1.593101,35.355159,-1.388483
826,2,-0.153141,0.080758,9.799806,0.036194,0.024587,-0.069639,6.372406,33.104354,-57.030105
871,1,-0.215952,0.862613,10.004991,0.024435,0.034819,-0.018173,1.183864,35.559776,-0.920783
871,2,-0.166899,0.069392,9.823137,0.035736,0.026114,-0.071929,6.913184,33.133586,-57.921661
917,1,-0.196211,0.882353,10.027124,0.021380,0.038026,-0.019700,1.242327,35.632854,-1.753873
917,2,-0.166899,0.100499,9.783655,0.037263,0.023976,-0.069486,6.372406,32.972816,-57.760887
963,1,-0.184247,0.847059,9.989438,0.021991,0.039401,-0.020159,1.154633,35.355159,-2.060801
963,2,-0.171087,0.084347,9.789636,0.038943,0.021380,-0.072998,6.474715,32.841274,-57.994739
1009,1,-0.202792,0.879362,9.988241,0.020159,0.042302,-0.018021,1.797720,35.749782,-1.973107
1009,2,-0.165105,0.081356,9.823137,0.038026,0.024587,-0.072082,6.796259,32.665885,-58.301662
1055,1,-0.215354,0.843470,9.966107,0.022449,0.041692,-0.021380,1.052324,35.033615,-2.192341
1055,2,-0.027517,0.062213,9.829117,0.037110,0.022144,-0.073304,6.971645,33.089740,-57.410114
1101,1,-0.184846,0.866800,10.003195,0.019242,0.040164,-0.020617,1.461561,35.705932,-1.768489
1101,2,-0.170489,0.077767,9.783655,0.036346,0.023060,-0.071471,6.664718,32.519729,-57.907043
1147,1,-0.197408,0.870389,9.973883,0.018784,0.036194,-0.021075,1.300789,35.822860,-2.177726
1147,2,-0.155533,0.075374,9.824930,0.035277,0.027642,-0.073304,6.883952,33.002044,-58.257820
1193,1,-0.192622,0.863211,9.992428,0.019853,0.038026,-0.017868,1.271558,35.881320,-1.870798
1193,2,-0.144168,0.072981,9.813565,0.033292,0.023518,-0.073304,6.284712,32.680503,-58.316284
1239,1,-0.203988,0.873978,10.013365,0.024129,0.035583,-0.021533,1.622333,35.179771,-1.783104
1239,2,-0.173480,0.089731,9.811171,0.034514,0.027489,-0.071319,6.489330,32.665885,-58.067817
1285,1,-0.214756,0.875175,9.974482,0.016188,0.036805,-0.021533,0.950015,35.515930,-2.586963
1285,2,-0.306281,0.102293,9.778868,0.029932,0.029780,-0.073304,6.591639,32.461269,-58.272434
1330,1,-0.199801,0.842872,10.014561,0.016188,0.043982,-0.021838,1.096171,34.872844,-2.411576
1330,2,-0.153739,0.098106,9.782458,0.020769,0.034361,-0.072540,6.679334,32.724349,-58.316284
1376,1,-0.207577,0.818345,9.768699,0.004276,0.038179,-0.019853,0.789243,34.960536,-2.484653
1376,2,-0.167498,0.083749,9.789636,0.016799,0.025351,-0.070708,6.065478,32.534347,-58.681671
1422,1,-0.200997,0.867996,9.992428,0.018326,0.037415,-0.021991,1.315405,35.033615,-2.221573
1422,2,-0.158525,0.115454,9.788440,0.027489,0.018479,-0.068722,6.430868,32.417423,-58.623207
1468,1,-0.212363,0.904487,9.974482,0.010232,0.039248,-0.019395,0.672318,35.501316,-1.373867
1468,2,-0.160319,0.089731,9.798011,0.031612,0.026573,-0.075289,7.147033,32.461269,-57.556270
1514,1,-0.209970,0.917647,9.963115,0.023976,0.033903,-0.018173,0.613856,35.472084,-2.133879
1514,2,-0.159721,0.093918,9.836894,0.035888,0.021991,-0.071929,6.650102,32.885124,-58.389358
1559,1,-0.189631,0.880559,9.973883,0.023976,0.033750,-0.017257,1.169249,35.603626,-2.002338
1559,2,-0.141177,0.102891,9.783056,0.038943,0.019548,-0.072998,7.059340,32.914352,-58.593975
1605,1,-0.186640,0.876970,9.972687,0.020006,0.038026,-0.019090,0.876937,35.282081,-1.841567
1605,2,-0.175872,0.133400,9.806983,0.032834,0.022602,-0.072388,6.635486,32.622039,-58.082431
1651,1,-0.200399,0.888934,9.961919,0.020464,0.037568,-0.018784,1.183864,35.691318,-1.783104
1651,2,-0.157926,0.096311,9.803993,0.032070,0.023213,-0.073457,6.577024,32.475883,-58.228588
1698,1,-0.211765,0.900300,9.894322,0.018326,0.038485,-0.019395,1.052324,35.033615,-2.075417
1698,2,-0.160917,0.133998,9.804592,0.040623,0.025656,-0.068264,6.752411,32.855888,-58.053199
1743,1,-0.195613,0.921835,9.924232,0.041539,0.041233,-0.021686,0.993861,35.413623,-1.520023
1743,2,-0.196810,0.093918,9.801600,0.036041,0.022144,-0.072693,6.401637,33.265125,-58.111660
1789,1,-0.208176,0.822533,10.007981,0.129503,0.038943,-0.027794,0.803858,36.202865,-1.213096
1789,2,-0.146560,0.122632,9.818350,0.038485,0.026573,-0.071929,7.220111,33.104354,-58.360130
1835,1,-0.184846,0.786641,9.998410,0.021228,0.039706,-0.018479,0.760012,35.603626,-1.622333
1835,2,-0.148953,0.102891,9.804592,0.038179,0.020922,-0.071013,6.957030,32.519729,-57.921661
1881,1,-0.205783,0.920638,9.753146,0.142790,0.039095,-0.033750,1.213096,35.413623,-2.353113
1881,2,-0.187837,0.136989,9.778270,0.036041,0.023976,-0.072540,6.620871,32.095878,-57.921661
1927,1,-0.178265,0.580259,10.097712,0.388510,0.050091,-0.104458,0.847705,36.670566,-2.470038
1927,2,-0.156730,0.072383,9.801600,0.036499,0.021838,-0.072388,6.664718,32.636657,-58.126277
1972,1,-0.108275,0.377468,10.253844,0.133321,0.044593,-0.053756,1.198480,37.430576,-2.250804
1972,2,-0.150150,0.112463,9.815359,0.036805,0.026114,-0.073762,6.182403,32.855888,-58.287048
2018,1,-0.236291,0.658624,9.909874,-0.127213,0.028863,0.016646,0.789243,37.196723,-2.031570
2018,2,-0.151346,0.095115,9.803395,0.038332,0.025351,-0.070860,6.796259,32.826660,-58.287048
2064,1,-0.176471,0.539581,10.066606,0.044135,0.041692,-0.034514,0.716165,37.562118,-2.075417
2064,2,-0.170489,0.103490,9.813565,0.033139,0.024893,-0.073762,7.161649,32.534347,-58.477054
2110,1,-0.147159,0.568295,10.224533,-0.289703,0.020464,0.065363,1.008477,36.845951,-2.119263
2110,2,-0.180658,0.120239,9.779467,0.034361,0.025809,-0.071166,6.489330,32.475883,-58.477054
2156,1,-0.204586,0.703490,10.063016,-0.258701,0.034361,0.006109,0.540777,36.655948,-2.133879
2156,2,-0.172283,0.096909,9.829716,0.035125,0.024282,-0.066584,6.474715,33.162818,-58.725517
2201,1,-0.697508,0.615554,9.909874,-2.439185,-0.000458,0.149204,0.760012,34.039752,-1.885414
2201,2,-0.169292,0.132203,9.765707,0.026420,0.026267,-0.067501,6.840106,32.797428,-58.506286
2247,1,-0.040080,2.451447,9.158529,-1.636661,-0.073304,-0.391870,0.277697,27.871967,-0.540777
2247,2,-0.164507,0.113061,9.785449,0.031460,0.025198,-0.070402,6.387022,33.118972,-57.819347
2293,1,-0.252443,2.295315,9.819546,-0.012675,0.037263,-0.031765,-0.058462,26.351943,-0.818474
2293,2,-0.151346,0.129212,9.789636,0.037415,0.021228,-0.071319,6.503946,32.461269,-58.287048
2340,1,-0.395414,2.163710,10.533205,-1.007928,-0.032070,-0.249997,-0.365390,26.512714,-0.087694
2340,2,-0.160319,0.068794,9.836894,0.001374,0.039401,-0.065821,7.073955,32.622039,-58.667057
2386,1,0.063410,3.590430,8.258230,1.389566,0.149509,0.317039,0.058462,22.157264,1.256942
2386,2,-0.161516,0.126820,9.808181,0.047953,0.018173,-0.075595,6.445484,32.358959,-58.287048
2432,1,-0.507278,1.718645,9.629915,3.044399,0.271682,0.248775,0.730780,29.625839,-2.265419
2432,2,-0.272184,0.154935,9.732807,0.078954,0.005192,-0.081856,7.132418,32.417423,-58.272434
2477,1,-0.145962,0.556929,10.154541,0.364839,0.048564,-0.100029,0.467700,36.509792,-3.536978
2477,2,-0.147757,0.120239,9.803395,0.040928,0.020159,-0.074831,6.635486,32.446651,-58.827827
2523,1,-0.150150,0.548555,10.021142,0.079871,0.042150,-0.033139,0.292312,37.547500,-2.192341
2523,2,-0.157926,0.123829,9.804592,0.039401,0.022144,-0.068570,6.255481,32.519729,-59.237064
2569,1,-0.186640,0.535992,10.046266,-0.180358,0.025045,0.042302,1.198480,37.225959,-2.543116
2569,2,-0.158525,0.098106,9.815958,0.038637,0.024435,-0.069333,6.913184,32.022800,-59.295528
2615,1,-0.113659,0.665803,10.730015,-2.023949,0.047953,0.148593,0.511546,34.916690,-2.470038
2615,2,-0.162114,0.108873,9.822538,0.033903,0.025809,-0.066584,6.927799,32.052032,-58.798599
2661,1,-0.249452,2.356930,9.586844,-2.330909,-0.120188,-0.550848,0.146156,26.658872,-0.482315
2661,2,-0.177667,0.090927,9.847064,0.027794,0.030543,-0.069639,6.430868,32.490501,-58.652442
2707,1,-0.049053,3.533601,8.691330,-0.999986,-0.040928,-0.260839,-0.438468,21.324174,1.169249
2707,2,-0.141177,0.138784,9.774681,0.038332,0.023213,-0.074984,6.913184,32.227416,-58.623207
2752,1,-0.199203,2.806781,9.580862,1.858710,0.200058,0.485791,0.380006,23.194971,0.438468
2752,2,-0.151346,0.132802,9.827322,0.044135,0.023518,-0.072082,6.796259,32.052032,-58.374744
2798,1,-0.463011,1.599004,9.692727,4.349055,0.276264,0.172111,1.096171,29.918151,-1.797720
2798,2,-0.154337,0.038285,9.933205,0.094837,0.037263,-0.080329,7.439345,32.315109,-58.257820
2844,1,-0.143569,0.443869,10.246068,0.331700,0.053909,-0.096822,0.643087,37.006725,-2.280035
2844,2,-0.167498,0.119641,9.789636,0.035736,0.026725,-0.070860,6.693949,32.212802,-57.673191
2890,1,-0.160917,0.488136,10.060026,0.035277,0.033598,-0.024129,1.169249,37.035953,-1.505408
2890,2,-0.156132,0.115454,9.786645,0.028253,0.025045,-0.071013,6.957030,32.505115,-58.433204
2937,1,-0.120239,0.447458,10.166507,-0.423024,0.015272,0.109956,0.599240,37.109031,-1.359252
2937,2,-0.144766,0.134596,9.781859,0.030238,0.024129,-0.065363,6.664718,32.622039,-57.600116
2982,1,-0.181855,1.000798,10.621740,-3.230103,0.016035,0.225715,0.701549,33.849750,-1.373867
2982,2,-0.248854,0.247059,9.659826,0.031307,0.028558,-0.064752,7.044723,32.958202,-58.667057
3028,1,-0.007777,3.206382,8.578868,-2.884047,-0.179747,-0.761443,-0.292312,23.224203,0.716165
3028,2,-0.123230,0.131605,9.813565,0.027489,0.028711,-0.071319,6.869336,32.665885,-58.681671
3074,1,-0.159123,3.336193,9.412767,0.225715,0.053756,0.042913,-0.584624,21.192634,2.396960
3074,2,-0.133998,0.144766,9.809975,0.035736,0.023518,-0.074220,6.883952,32.592807,-59.017829
3120,1,-0.323629,2.995814,9.805788,0.270155,0.060323,0.065821,0.116925,22.244956,1.622333
3120,2,-0.139980,0.138784,9.803993,0.041692,0.023824,-0.071319,6.416252,32.972816,-58.930133
3166,1,0.348754,2.317449,8.475976,5.003444,0.307723,0.175776,0.993861,28.734287,-0.657702
3166,2,-0.116650,-0.171087,9.743575,0.091324,0.002749,-0.039248,7.351652,32.475883,-59.748615
3211,1,-0.115454,0.617946,10.046266,0.199295,0.050549,-0.076358,0.906168,37.445190,-2.031570
3211,2,-0.170489,0.107677,9.817751,0.032529,0.025045,-0.071319,6.840106,32.592807,-58.550132
3257,1,-0.123829,0.533599,10.028320,-0.004429,0.037721,-0.009163,1.066940,37.591346,-1.914645
3257,2,-0.146560,0.125623,9.815359,0.034819,0.024740,-0.071624,6.971645,32.563579,-58.418590
3303,1,-0.087936,0.498904,10.110872,-0.110414,0.029932,0.026267,1.373867,37.328266,-2.046185
3303,2,-0.162712,0.110070,9.769895,0.035125,0.026420,-0.070402,7.147033,32.607425,-58.389358
3349,1,-0.430708,0.490529,11.231311,-3.996433,-0.087506,-0.151800,0.862321,33.893596,-1.826951
3349,2,-0.114855,0.053240,9.920044,0.026114,0.029780,-0.061850,7.000877,32.461269,-58.564746
3395,1,-0.121436,3.159722,9.190235,-2.060601,-0.108276,-0.533438,0.555393,22.931892,1.359252
3395,2,-0.155533,0.128614,9.793824,0.025198,0.029016,-0.071166,6.942414,32.519729,-58.520900
3441,1,-0.059222,3.735794,9.291331,-0.874606,0.047800,-0.306807,0.701549,18.781059,2.586963
3441,2,-0.147159,0.157926,9.777073,0.040623,0.027336,-0.075136,6.460100,32.724349,-58.287048
3486,1,0.047258,3.986443,8.816954,0.332922,0.065210,0.074373,0.613856,18.108739,2.835428
3486,2,-0.175872,0.153739,9.793824,0.042761,0.023060,-0.076205,6.387022,32.738964,-58.213973
3533,1,0.026919,2.184647,9.346964,5.003444,0.163406,0.589638,0.964630,28.251972,-0.876937
3533,2,-0.196810,0.275175,9.827322,0.119271,-0.014203,-0.084910,6.971645,32.475883,-57.921661
3579,1,-0.116052,0.681954,9.857234,0.252593,0.051007,-0.077274,1.607717,37.518268,-2.236188
3579,2,-0.175872,0.113659,9.826725,0.032223,0.023824,-0.071777,6.883952,32.285881,-58.330898
3625,1,-0.066999,0.533001,10.010972,0.073609,0.041233,-0.036652,1.403099,37.415962,-2.148495
3625,2,-0.156730,0.122632,9.800404,0.038026,0.021380,-0.069639,6.328559,32.183570,-57.307804
3670,1,-0.008973,0.426521,10.219746,-0.596510,-0.038637,0.176387,1.651564,37.123645,-2.338498
3670,2,-0.147757,0.094516,9.835698,0.031918,0.026725,-0.073762,7.278573,32.519729,-57.819347
3716,1,-0.063410,0.991227,10.167703,-1.803427,0.003665,0.117744,1.096171,34.551300,-2.776966
3716,2,-0.185444,0.169292,9.776475,0.037568,0.026573,-0.068875,6.810874,32.475883,-58.374744
3762,1,-0.255434,2.984448,8.749357,-5.004208,-0.371711,-1.375669,0.613856,22.303421,0.511546
3762,2,-0.486341,-1.434497,12.599408,0.078496,0.027642,-0.087506,6.343175,33.002044,-58.886291
3808,1,-0.359522,3.467200,9.131011,0.074984,0.038943,-0.009010,0.672318,20.213388,2.192341
3808,2,-0.147159,0.077767,9.985250,0.046426,0.023824,-0.076664,6.460100,32.914352,-57.702426
3854,1,-0.388235,2.053640,7.849655,5.003444,0.195782,0.548404,1.286174,25.431159,-0.248465
3854,2,-0.103490,0.189033,9.712468,0.116064,-0.009010,-0.075595,6.767027,32.738964,-58.579360
3900,1,0.240479,-0.081954,10.862816,-0.599106,-0.029474,0.205862,1.695411,38.570594,-2.586963
3900,2,-0.167498,0.117248,9.842278,0.038790,0.025045,-0.069333,6.781643,32.651271,-58.097045
3946,1,-0.105882,0.865005,9.855440,0.022449,0.038943,-0.015272,1.300789,35.632854,-2.148495
3946,2,-0.178864,0.139382,9.780663,0.038332,0.022449,-0.070097,7.015493,32.738964,-58.433204
3991,1,-0.065204,0.766900,10.029517,0.029780,0.042608,-0.018479,1.490792,36.202865,-1.841567
3991,2,-0.299701,0.186042,9.622737,0.035125,0.022755,-0.072693,7.059340,32.695117,-58.506286
4037,1,-0.048455,0.699901,9.934403,-0.119424,0.026420,0.030543,1.271558,36.729026,-1.914645
4037,2,-0.159721,0.111266,9.790833,0.034667,0.024893,-0.068570,6.679334,32.987430,-58.623207
4083,1,0.147757,1.176072,10.558929,-2.112372,-0.056810,-0.357509,1.388483,34.989768,-1.973107
4083,2,-0.165703,0.119641,9.779467,0.036041,0.025045,-0.065973,6.445484,32.885124,-58.272434
4130,1,0.019741,2.885146,8.815159,-3.008206,-0.141568,-0.696692,1.446945,25.694242,-1.110786
4130,2,-0.160319,0.141177,9.786645,0.016493,0.029322,-0.069028,6.723180,33.075122,-57.848583
4176,1,-0.122632,3.214159,9.487543,-0.422871,-0.031918,-0.068264,1.008477,21.207248,0.979246
4176,2,-0.147159,0.119641,9.803395,0.033292,0.023671,-0.071624,6.357790,32.388191,-58.973987
4221,1,-0.102293,3.516253,9.354741,0.120799,0.041844,-0.008247,0.248465,20.885705,2.090032
4221,2,-0.153739,0.154337,9.795021,0.041539,0.025504,-0.071013,6.255481,33.148200,-58.710903
4267,1,-0.132802,1.670190,9.253643,5.003444,0.336587,0.793667,1.183864,28.471206,-1.476176
4267,2,-0.160319,0.095713,9.855440,0.094531,-0.004123,-0.080176,7.468577,32.870502,-58.579360
4313,1,-0.012562,0.817747,10.079169,0.137445,0.041233,-0.028100,1.461561,36.012859,-2.470038
4313,2,-0.144168,0.118445,9.778868,0.075136,0.023671,-0.069028,6.986261,32.943580,-57.614730
4359,1,-0.056231,0.771685,10.014561,0.273362,0.049022,-0.047800,2.265419,36.159019,-2.192341
4359,2,-0.154935,0.117248,9.813565,0.046120,0.025351,-0.069639,6.547793,32.724349,-57.980121
4405,1,-0.026321,0.663410,10.034900,0.016188,0.034056,-0.010843,1.973107,36.860569,-2.747735
4405,2,-0.171685,0.114855,9.786645,0.032223,0.023824,-0.071013,6.489330,32.417423,-57.848583
4450,1,-0.031107,0.718445,9.982258,-0.082314,0.033903,-0.002138,1.841567,36.772872,-2.952353
4450,2,-0.172881,0.128614,9.788440,0.036805,0.026420,-0.069333,6.840106,33.016662,-58.403976
4496,1,-0.092722,0.451645,11.266606,-2.861445,-0.078191,-0.243888,1.636948,34.653610,-1.841567
4496,2,-0.175872,0.150748,9.869196,0.031001,0.024282,-0.065668,6.883952,32.885124,-58.111660
4542,1,0.184846,2.409572,9.735199,-1.700802,-0.158978,-0.262672,0.716165,22.215726,0.891552
4542,2,-0.155533,0.106481,9.820145,0.030849,0.019548,-0.071013,6.606256,33.352821,-57.907043
4588,1,-0.111266,3.187240,9.559328,-0.010843,0.035583,-0.023824,1.037708,21.821105,1.388483
4588,2,-0.157328,0.138784,9.799208,0.035888,0.025809,-0.072082,6.343175,32.885124,-57.395500
4634,1,-0.113659,3.306283,9.375080,0.086132,0.039554,-0.022297,-0.190003,20.856473,1.534639
4634,2,-0.175872,0.140578,9.796814,0.050091,0.024893,-0.073457,6.343175,32.753582,-58.023971
4680,1,-0.160319,1.810769,14.389241,5.003444,0.139583,0.345292,0.555393,26.761180,-1.213096
4680,2,-0.110070,0.147159,9.835698,0.125075,-0.020922,-0.088881,6.679334,32.315109,-57.863201
4725,1,-0.017946,0.785444,9.960125,0.113926,0.043677,-0.009316,1.344636,36.480560,-2.411576
4725,2,-0.166899,0.127418,9.799806,0.036194,0.025809,-0.069180,7.205495,32.432037,-57.819347
4772,1,-0.046062,0.759123,10.015160,0.088575,0.040317,-0.001069,1.490792,36.422096,-2.148495
4772,2,-0.169292,0.104088,9.792628,0.040928,0.023976,-0.069791,6.679334,31.949722,-57.614730
4818,1,-0.010169,0.724427,10.003793,-0.018479,0.035125,-0.012217,1.315405,36.495174,-3.142356
4818,2,-0.174078,0.098704,9.818949,0.030391,0.022449,-0.074220,6.796259,32.271266,-57.527042
4864,1,-0.007178,0.801596,9.969098,-0.091172,0.037874,-0.005651,1.914645,36.729026,-2.016954
4864,2,-0.169292,0.133998,9.772887,0.032987,0.022297,-0.069028,6.752411,32.052032,-58.740131
4910,1,-0.076570,0.741177,11.225927,-4.138001,-0.078954,0.020159,1.242327,33.878982,-2.338498
4910,2,-0.181256,-0.075374,10.094720,0.005498,0.040164,-0.057269,6.840106,33.148200,-58.988601
4956,1,0.069392,3.875774,8.245667,-1.003652,-0.161421,-0.216704,0.073078,21.455713,1.563870
4956,2,-0.155533,0.132203,9.783056,0.035736,0.023518,-0.069180,6.328559,32.665885,-57.980121
5001,1,-0.132802,3.401397,9.424731,0.079871,0.042608,-0.011912,0.248465,19.935691,1.666180
5001,2,-0.132203,0.139382,9.786046,0.038179,0.021838,-0.072540,6.606256,32.548961,-58.097045
5047,1,-0.125025,3.425326,9.414561,0.022144,0.039248,-0.020006,0.570009,20.330312,1.943876
5047,2,-0.128614,0.139980,9.789038,0.040775,0.025198,-0.072998,6.416252,32.388191,-58.345516
5093,1,-0.085543,3.059224,9.178270,2.930626,0.289703,0.727999,0.818474,22.230342,0.745396
5093,2,-0.165703,0.160917,9.820743,0.050549,0.019242,-0.075900,6.825489,32.271266,-58.433204
5139,1,-1.390230,0.777667,12.972689,5.003444,0.178525,-0.123242,1.183864,35.077461,-1.768489
5139,2,-0.163310,0.168096,9.697513,0.034056,0.022755,-0.070250,6.810874,32.344345,-58.213973
5184,1,-0.019143,0.751346,10.001400,0.105222,0.050702,-0.013286,1.403099,36.919029,-2.338498
5184,2,-0.172881,0.116052,9.818949,0.041081,0.021075,-0.072693,6.518562,32.315109,-58.798599
5230,1,-0.022732,0.664008,9.979267,0.116217,0.041692,-0.038637,1.622333,36.831336,-2.090032
5230,2,-0.151346,0.110668,9.826725,0.035125,0.022907,-0.071471,6.737796,32.826660,-57.717044
5276,1,-0.009571,0.655035,10.036695,-0.054062,0.032834,-0.006109,1.242327,36.889797,-1.870798
5276,2,-0.141177,0.123230,9.820145,0.033292,0.018479,-0.069944,6.211634,32.914352,-57.717044
5322,1,-0.019143,0.754935,10.084551,-0.245110,0.034819,0.025809,0.950015,36.582870,-2.353113
5322,2,-0.084347,0.145364,9.823137,0.029627,0.022755,-0.068722,6.883952,32.695117,-57.424728
5369,1,-1.542174,5.706284,9.002398,-4.995503,-0.167530,-0.353996,0.672318,29.333528,-0.657702
5369,2,-0.135194,0.156132,9.796216,-0.030085,0.054825,-0.059559,6.693949,33.016662,-57.307804
5415,1,-0.053839,3.267399,9.303295,-0.141568,0.003054,-0.047037,0.467700,22.054954,1.841567
5415,2,-0.156132,0.133998,9.818350,0.036957,0.023213,-0.071471,6.401637,33.002044,-57.863201
5460,1,-0.107079,3.242873,9.519248,-0.029627,0.039859,-0.029322,0.467700,21.484945,2.353113
5460,2,-0.165105,0.128614,9.810574,0.035736,0.028405,-0.069639,6.153172,33.089740,-57.746273
5506,1,-0.128016,3.303890,9.464811,0.064904,0.039859,-0.018326,0.672318,21.397253,1.695411
5506,2,-0.145962,0.133998,9.790234,0.043219,0.022755,-0.071166,6.401637,32.870502,-58.184741
5552,1,-0.151944,3.351746,9.004791,1.222494,0.141721,0.315970,0.745396,21.397253,1.783104
5552,2,-0.183051,0.128016,9.945170,0.042608,0.023213,-0.071471,6.313943,32.461269,-58.082431
5598,1,-0.425922,1.043271,9.399008,5.003444,0.306807,0.031918,0.891552,31.935108,-0.716165
5598,2,-0.187837,-0.306281,10.264611,0.067653,0.011912,-0.071929,6.577024,32.534347,-58.213973
5643,1,-0.002991,0.586242,10.033106,0.126144,0.048564,-0.031918,1.081555,37.255187,-1.520023
5643,2,-0.000598,0.123829,9.798609,0.038790,0.020922,-0.069639,7.000877,32.738964,-57.717044
5689,1,-0.010768,0.614955,10.012767,0.047189,0.039248,-0.013439,1.023093,37.196723,-2.470038
5689,2,-0.168096,0.129811,9.800404,0.031765,0.021991,-0.070402,6.869336,32.695117,-58.637828
5735,1,-0.043669,0.594616,9.985848,-0.027489,0.030849,-0.006872,0.599240,37.328266,-1.549255
5735,2,-0.153739,0.114855,9.771092,0.034208,0.023518,-0.070250,7.088570,32.622039,-58.243202
5781,1,-0.046062,0.646660,10.013365,-0.104153,0.036499,0.013134,0.950015,37.211341,-1.914645
5781,2,-0.155533,0.120838,9.811171,0.032681,0.028405,-0.068570,6.869336,32.665885,-58.023971
5827,1,0.008973,0.753739,10.406387,-1.027933,0.040164,0.098807,1.242327,36.305175,-2.002338
5827,2,-0.165703,0.099302,9.816555,0.034056,0.026725,-0.068417,6.518562,32.519729,-57.614730
5873,1,-2.958725,-1.724627,11.216356,-5.004208,-0.095142,-0.476017,0.891552,26.439636,-0.204619
5873,2,-0.248255,0.203390,9.436695,-0.021075,0.046578,-0.066890,6.372406,33.192050,-58.871673
5918,1,-0.098106,3.344568,9.427721,0.028863,0.039401,-0.019853,0.277697,21.558023,2.265419
5918,2,-0.154935,0.138186,9.803395,0.041081,0.021991,-0.069944,6.460100,32.841274,-58.857059
5965,1,-0.127418,3.272185,9.479167,0.025351,0.040775,-0.023671,0.219234,21.382637,2.075417
5965,2,-0.163908,0.148953,9.812369,0.038485,0.021991,-0.069791,6.591639,32.256652,-57.848583
6011,1,-0.138784,3.302693,9.498908,0.045509,0.038790,-0.009621,0.409237,21.017246,1.607717
6011,2,-0.142971,0.133400,9.813565,0.036652,0.025198,-0.072388,6.343175,32.548961,-58.360130
6057,1,0.021535,3.506083,8.760723,1.031751,0.121562,0.245415,0.116925,21.572639,1.607717
6057,2,-0.156730,0.118445,9.824930,0.049786,0.023060,-0.076205,6.518562,32.519729,-57.746273
6102,1,-3.111268,-2.716452,15.963718,5.001612,0.046273,-0.266948,0.657702,36.100555,-1.987723
6102,2,-0.153739,0.208774,9.578470,0.038026,0.022144,-0.072388,7.380883,32.446651,-58.009357
6148,1,-0.037687,0.490529,10.061222,0.127824,0.034208,-0.092393,0.950015,37.883659,-1.695411
6148,2,-0.166301,0.123230,9.678370,0.036652,0.025351,-0.074678,6.620871,32.826660,-58.418590
6194,1,-0.028714,0.575474,9.996017,0.002902,0.037721,-0.023976,1.169249,37.883659,-2.572347
6194,2,-0.149551,0.111864,9.803993,0.037110,0.020922,-0.070402,6.664718,32.782810,-59.134757
6240,1,-0.053839,0.565304,9.964910,-0.011301,0.034514,-0.009163,0.774627,37.591346,-1.900029
6240,2,-0.186042,0.102891,9.789636,0.032376,0.026420,-0.068264,6.883952,32.285881,-57.848583
6286,1,-0.031705,0.592822,10.044471,-0.115606,0.034208,0.023518,0.774627,37.035953,-1.768489
6286,2,-0.139980,0.123829,9.786046,0.035277,0.027947,-0.074526,6.723180,32.402809,-58.418590
6331,1,-0.061017,0.713061,10.301102,-0.529467,0.032681,0.075136,1.271558,36.465946,-2.090032
6331,2,-0.180658,0.063410,9.906885,0.037874,0.023671,-0.070097,6.854721,32.534347,-58.710903
6377,1,-2.498107,-4.409972,10.554741,-5.004208,-0.209221,-1.134682,1.023093,24.305757,1.110786
6377,2,-0.079561,-0.111266,9.483355,0.007789,0.037874,-0.070097,6.840106,32.665885,-58.579360
6423,1,0.182453,3.891328,8.314461,-1.394911,-0.097738,-0.406684,0.555393,18.649517,2.411576
6423,2,-0.137587,0.164507,9.766904,0.043219,0.026573,-0.074373,6.401637,32.388191,-57.980121
6469,1,-0.148953,3.820739,9.334402,-0.009621,0.039554,-0.026878,0.116925,17.553346,2.908506
6469,2,-0.141775,0.148953,9.810574,0.035277,0.028405,-0.072998,6.767027,32.490501,-57.877815
6515,1,-0.136391,3.862614,9.262617,0.054520,0.033445,-0.016952,0.336159,17.538730,2.440807
6515,2,-0.146560,0.150150,9.786046,0.040928,0.027031,-0.070402,6.825489,32.753582,-57.965503
6562,1,-0.074178,3.845864,8.982657,0.924697,0.119577,0.238696,0.570009,18.152587,2.002338
6562,2,-0.275175,0.131007,9.799806,0.042761,0.023518,-0.073457,7.234727,32.899738,-58.725517
6607,1,-0.222533,2.834897,9.016157,2.490039,0.100640,0.192881,0.803858,21.441099,0.058462
6607,2,-0.155533,0.162712,9.766904,0.047342,0.017562,-0.072998,7.000877,32.461269,-58.228588
6653,1,-0.138784,0.134596,10.435698,0.376904,0.127671,0.068875,0.730780,37.635196,-2.703888
6653,2,-0.170489,0.032303,9.857831,0.048411,0.028558,-0.067195,7.161649,32.651271,-57.687812
6699,1,-0.041276,0.474975,10.071990,0.093310,0.047800,-0.057727,1.052324,38.249050,-3.098509
6699,2,-0.146560,0.095713,9.798609,0.038332,0.023671,-0.070555,7.351652,32.972816,-58.447818
6745,1,-0.041874,0.461217,9.988839,-0.031001,0.041844,-0.010996,0.876937,38.687519,-2.060801
6745,2,-0.158525,0.117847,9.795619,0.032987,0.028253,-0.068417,7.059340,32.212802,-58.681671
6791,1,-0.053240,0.501296,9.953544,-0.045357,0.038943,0.022144,0.789243,37.971351,-1.593101
6791,2,-0.175274,0.135194,9.804592,0.037263,0.025809,-0.070555,6.869336,32.242034,-58.477054
6837,1,-0.002991,0.402592,10.173085,-0.196088,0.033598,0.070708,1.183864,38.292896,-1.680795
6837,2,-0.161516,0.133998,9.823734,0.029932,0.027184,-0.066126,6.781643,31.876644,-58.243202
6883,1,-0.108873,0.454038,10.804791,-2.176971,0.015882,0.150884,1.081555,36.275943,-1.520023
6883,2,-0.166301,0.119043,9.816555,0.032987,0.025809,-0.066737,6.635486,32.446651,-58.842445
6929,1,0.330808,3.264408,8.553145,-4.245971,-0.272293,-1.046412,0.876937,23.384975,0.380006
6929,2,-0.129212,0.297906,9.600006,0.008247,0.034361,-0.072693,6.460100,32.943580,-59.368602
6975,1,-0.093320,3.193820,9.539587,0.044288,0.034667,-0.015730,0.993861,21.616485,1.885414
6975,2,-0.137587,0.118445,9.817153,0.038943,0.023213,-0.071471,7.059340,32.782810,-58.827827
7020,1,-0.123829,3.191427,9.482158,0.007789,0.041386,-0.020311,0.526162,21.791873,2.090032
7020,2,-0.172881,0.134596,9.780065,0.037110,0.024893,-0.070860,6.883952,32.622039,-58.798599
7066,1,-0.059821,3.211766,9.401999,0.195630,0.054825,0.021838,0.993861,21.631101,1.242327
7066,2,-0.202193,0.124427,9.782458,0.032987,0.022907,-0.070860,6.372406,32.417423,-58.842445
7112,1,-0.113659,2.922235,9.598210,0.074984,0.041997,-0.010996,0.467700,21.777257,1.856182
7112,2,-0.150150,0.128016,9.814762,0.077122,0.024893,-0.071624,6.723180,32.651271,-58.257820
7159,1,-0.041874,3.095116,9.372686,0.472199,0.078802,0.103542,0.876937,22.581117,0.263081
7159,2,-0.149551,0.133998,9.776475,0.039401,0.021838,-0.073304,6.708565,33.104354,-58.184741
7205,1,0.026919,1.669592,8.624930,5.003444,0.351248,0.196088,0.657702,30.780473,-1.593101
7205,2,-0.200399,-0.315254,10.849059,0.113926,0.001374,-0.082009,6.547793,32.183570,-58.447818
7251,1,-0.047856,0.507877,9.963115,0.109192,0.035736,-0.053298,1.359252,37.737503,-2.484653
7251,2,-0.144766,0.110070,9.779467,0.036499,0.026878,-0.070250,6.898568,32.519729,-58.433204
7297,1,-0.024526,0.504886,10.005588,0.059407,0.042761,-0.021991,1.505408,38.307510,-2.221573
7297,2,-0.180060,0.107677,9.792628,0.037721,0.023366,-0.068875,6.781643,32.563579,-58.228588
7343,1,-0.043669,0.525225,9.994821,-0.022755,0.036041,-0.012981,1.037708,37.942123,-2.543116
7343,2,-0.142971,0.117248,9.812369,0.036346,0.023824,-0.070860,7.044723,32.227416,-58.213973
7389,1,-0.034098,0.543769,9.994821,-0.005956,0.035430,-0.008705,1.096171,37.766735,-3.010816
7389,2,-0.152542,0.126820,9.818350,0.041539,0.025809,-0.070555,6.182403,32.665885,-57.936275
7435,1,-0.023330,0.552742,10.049258,-0.077733,0.036805,-0.003818,1.140017,37.605960,-2.119263
7435,2,-0.160319,0.113659,9.818350,0.035888,0.025656,-0.068875,6.840106,32.826660,-58.886291
7480,1,-0.079561,0.635893,10.790433,-0.699593,0.010690,-0.036957,1.037708,37.328266,-2.148495
7480,2,-0.168096,0.127418,9.815958,0.026420,0.026725,-0.067501,6.547793,32.168956,-58.155513
7526,1,-1.259821,3.278167,10.456636,-5.004208,-0.354913,-1.200961,1.446945,25.095001,0.087694
7526,2,-0.090927,0.278764,9.686147,0.014203,0.032529,-0.079871,6.650102,32.855888,-58.126277
7573,1,-0.131605,3.250650,9.537792,0.035736,0.037263,-0.022602,0.204619,21.528793,1.914645
7573,2,-0.133998,0.137587,9.815359,0.039706,0.022755,-0.072998,6.577024,32.548961,-57.965503
7618,1,-0.151346,3.220141,9.704092,-0.457996,-0.058796,-0.119882,0.891552,21.031862,1.856182
7618,2,-0.160319,0.111864,9.806385,0.035277,0.023213,-0.071319,6.883952,32.563579,-58.710903
7664,1,-0.126221,3.384049,9.391829,0.070555,0.040164,-0.013134,0.233850,20.783395,2.075417
7664,2,-0.137587,0.147757,9.809975,0.041844,0.024282,-0.071471,6.825489,32.490501,-58.243202
7710,1,-0.100499,3.297908,9.399008,0.428369,0.071624,0.089950,0.613856,20.578777,1.783104
7710,2,-0.169890,0.124427,9.824333,0.039248,0.024893,-0.071471,6.664718,33.104354,-57.673191
7757,1,-0.095115,3.107080,9.403196,0.560774,0.085216,0.120799,0.584624,22.361881,0.409237
7757,2,-0.139382,0.147159,9.791431,0.037415,0.023976,-0.071471,6.767027,32.300495,-57.687812
7803,1,0.066401,2.651845,9.863216,5.003444,0.363465,-0.091324,0.599240,28.456592,-1.213096
7803,2,-0.027517,0.093320,9.827322,0.109498,-0.009927,-0.082925,7.249342,31.891260,-58.023971
7849,1,-0.046660,0.526421,10.012168,0.163406,0.052229,-0.005498,1.227711,37.547500,-2.513885
7849,2,-0.148355,0.132203,9.826725,0.036499,0.024893,-0.069791,7.073955,31.891260,-57.848583
7895,1,-0.017348,0.516850,10.044471,0.054825,0.045815,-0.018784,0.657702,38.263668,-2.484653
7895,2,-0.153141,0.133998,9.796216,0.038943,0.020617,-0.069639,6.547793,32.198188,-58.652442
7941,1,-0.025723,0.492921,9.991829,-0.057269,0.032376,-0.008705,1.008477,37.766735,-1.695411
7941,2,-0.181256,0.131605,9.803993,0.035888,0.022755,-0.071624,6.737796,32.592807,-59.076290
7987,1,-0.042473,0.595813,10.011570,-0.115454,0.029169,0.005651,1.096171,37.532882,-2.090032
7987,2,-0.168694,0.138784,9.779467,0.038332,0.023671,-0.069791,6.723180,32.329730,-59.105525
8033,1,-0.010768,0.578465,10.042677,-0.098502,0.039554,0.000916,1.183864,37.562118,-2.104648
8033,2,-0.162114,0.138784,9.784851,0.036652,0.027947,-0.074678,6.591639,32.432037,-58.111660
8079,1,0.031107,1.038485,10.354342,-2.842814,-0.010079,0.054062,1.169249,35.399005,-1.563870
8079,2,-0.136391,0.117248,9.805788,0.038332,0.028100,-0.067501,6.577024,32.329730,-59.061676
8125,1,-1.887937,-0.099302,6.094519,-2.801123,-0.013744,-0.173180,0.935399,26.585792,-0.657702
8125,2,-0.148953,0.106481,9.829117,0.004581,0.040012,-0.064752,6.591639,32.154338,-57.994739
8171,1,-0.180060,3.051447,10.146765,-1.054048,-0.154091,-0.215788,0.204619,21.864952,0.979246
8171,2,-0.138784,0.120838,9.854841,0.020769,0.031307,-0.071471,6.781643,32.300495,-58.769363
8217,1,-0.381057,4.068397,9.077173,-0.001527,0.057269,0.032376,0.146156,19.891843,3.215434
8217,2,-0.195015,0.087338,9.820743,0.045051,0.027794,-0.060781,7.000877,32.198188,-58.725517
8263,1,0.046062,3.690330,8.839686,0.430202,0.075136,0.089492,0.087694,19.964923,2.806197
8263,2,-0.161516,0.144766,9.816555,0.044288,0.023366,-0.070708,6.708565,32.344345,-58.447818
8308,1,-0.152542,3.062215,9.642477,0.460745,0.075900,0.091935,0.277697,22.230342,1.929260
8308,2,-0.136989,0.133400,9.815359,0.034208,0.025809,-0.070555,6.796259,32.446651,-58.900905
8355,1,-0.132802,3.099304,9.538989,-0.268933,0.015577,-0.102320,0.526162,21.952646,1.330020
8355,2,-0.149551,0.121436,9.803993,0.038179,0.026878,-0.069180,7.249342,32.475883,-58.857059
8401,1,-0.131007,3.109473,9.488739,0.323300,0.061850,0.064904,0.204619,22.128032,1.739258
8401,2,-0.142971,0.133400,9.808779,0.038332,0.024587,-0.073762,6.460100,32.490501,-58.433204
8447,1,-0.191426,2.647658,9.214760,1.913230,0.123242,0.181122,0.818474,24.481145,1.125402
8447,2,-0.162712,0.195613,9.727423,0.042455,0.021686,-0.071929,6.957030,32.417423,-58.170127
8493,1,2.163710,-3.984050,12.903896,2.911231,0.194561,-0.651640,0.540777,38.059047,-1.490792
8493,2,-0.253639,0.845265,9.295518,0.041081,0.024893,-0.073609,6.942414,32.797428,-58.170127
8539,1,-0.024526,0.427717,9.958331,0.109039,0.038026,-0.074678,1.183864,38.789825,-1.388483
8539,2,-0.154337,0.125025,9.652049,0.040623,0.026420,-0.070708,7.293190,32.636657,-58.389358
8585,1,-0.038883,0.396610,9.997812,0.018937,0.042302,-0.025962,0.570009,38.468284,-1.578486
8585,2,-0.177667,0.145962,9.787243,0.035888,0.023824,-0.066737,7.366267,32.256652,-57.921661
8631,1,-0.059222,0.422931,9.967902,0.014508,0.040928,-0.006567,0.774627,38.570594,-2.002338
8631,2,-0.156730,0.117847,9.826127,0.040012,0.025504,-0.073304,7.249342,32.636657,-57.410114
8677,1,-0.041874,0.421735,10.019348,0.019090,0.041539,-0.009774,1.052324,38.278282,-1.636948
8677,2,-0.151944,0.115454,9.792030,0.034819,0.023213,-0.068875,6.708565,32.505115,-57.833969
8723,1,-0.023928,0.412164,9.994222,0.010996,0.040317,-0.016646,1.081555,38.468284,-1.856182
8723,2,-0.168694,0.120838,9.773485,0.035888,0.023518,-0.070402,6.299327,32.329730,-57.731658
8768,1,-0.047856,0.437887,9.930215,0.002902,0.038790,-0.017410,1.037708,38.351360,-1.768489
8768,2,-0.161516,0.112463,9.788440,0.037110,0.027947,-0.069639,7.073955,32.358959,-58.097045
8814,1,-0.050847,0.443869,9.978670,0.036041,0.039095,-0.019853,1.066940,38.570594,-1.929260
8814,2,-0.304487,0.113659,9.809975,0.043371,0.023518,-0.070708,7.059340,32.724349,-59.120143
8860,1,-0.040080,0.418146,10.004991,0.020769,0.037415,-0.017715,1.037708,38.555976,-1.973107
8860,2,-0.159721,0.110668,9.821939,0.037874,0.027336,-0.073304,6.869336,32.344345,-59.339374
8906,1,-0.022134,0.416949,10.024731,-0.005192,0.036499,-0.018173,1.432330,38.190589,-2.060801
8906,2,-0.144766,0.108873,9.769297,0.034514,0.027184,-0.070860,7.015493,32.534347,-58.740131
8953,1,0.022732,0.203988,10.342978,-0.497397,0.013286,0.100335,0.409237,37.985969,-1.636948
8953,2,-0.157926,0.131605,9.798011,0.028711,0.027489,-0.071319,7.030108,32.358959,-59.120143
8999,1,1.167697,0.528216,9.690932,-5.004208,-0.069028,0.225104,0.935399,31.394329,-0.745396
8999,2,-0.288933,0.158525,9.720244,-0.002596,0.050244,-0.063072,6.752411,32.592807,-58.637828
9045,1,-0.102891,3.151347,9.666406,-0.011301,0.027336,-0.033292,0.336159,21.397253,2.060801
9045,2,-0.157328,0.141775,9.808181,0.034056,0.023060,-0.069791,6.869336,32.680503,-58.652442
9091,1,-0.114855,3.219543,9.497114,0.023213,0.036805,-0.016952,0.716165,21.835720,2.499269
9091,2,-0.147757,0.122632,9.815958,0.036041,0.025045,-0.072846,6.620871,32.212802,-57.980121
9137,1,-0.094516,3.311069,9.490533,-0.291994,-0.015119,-0.080023,-0.058462,21.631101,2.981584
9137,2,-0.148355,0.111864,9.786046,0.039095,0.023060,-0.072846,7.322420,32.899738,-57.980121
9183,1,-0.096311,3.276971,9.468998,0.073151,0.042302,-0.016035,0.190003,20.973400,2.660041
9183,2,-0.129212,0.285942,9.813565,0.039859,0.023060,-0.067959,6.767027,32.256652,-58.447818
9229,1,-0.113659,3.265604,9.477373,0.030849,0.036041,-0.019853,-0.087694,20.856473,1.797720
9229,2,-0.151944,0.123230,9.815958,0.036041,0.023518,-0.070250,6.313943,32.125110,-58.067817
9275,1,-0.117248,3.308675,9.446865,0.020617,0.036041,-0.018784,0.219234,20.841859,2.411576
9275,2,-0.157926,0.120838,9.783655,0.076816,0.026114,-0.069333,7.015493,32.636657,-57.731658
9321,1,-0.115454,3.276971,9.460623,0.011606,0.038485,-0.019548,0.672318,21.294942,2.338498
9321,2,-0.162114,0.131605,9.778270,0.039706,0.026573,-0.072388,6.883952,32.899738,-58.447818
9367,1,-0.115454,3.284747,9.473186,0.034819,0.040623,-0.014050,0.730780,21.338788,1.987723
9367,2,-0.136989,0.133998,9.800404,0.044899,0.027336,-0.069180,6.810874,32.724349,-58.447818
9412,1,-0.093918,3.095116,9.413365,1.067182,0.127671,0.246637,0.438468,21.806488,1.154633
9412,2,-0.163908,0.181855,9.777671,0.040164,0.022144,-0.071624,6.767027,32.446651,-57.541656
9458,1,1.057628,3.255435,9.491131,3.840662,0.344375,-0.022449,0.263081,28.441978,-0.321543
9458,2,-0.013161,0.151346,9.775279,0.083230,0.037721,-0.078496,6.606256,32.563579,-58.184741
9504,1,-0.018544,0.450449,10.070794,0.345139,0.054672,-0.093615,0.657702,38.380588,-2.528500
9504,2,-0.186042,0.260818,9.787842,0.032681,0.025045,-0.067653,6.577024,32.826660,-57.950889
9551,1,-0.015553,0.424128,10.009178,0.121868,0.040928,-0.052534,0.745396,38.745983,-1.446945
9551,2,-0.156730,0.104088,9.792628,0.039095,0.022907,-0.071166,6.796259,32.505115,-57.760887
9597,1,-0.047258,0.391227,9.976277,0.038332,0.040012,-0.012828,0.862321,38.935981,-2.426191
9597,2,-0.154337,0.122034,9.803993,0.034208,0.022602,-0.072998,6.957030,32.505115,-58.243202
9643,1,-0.031107,0.413360,10.027723,-0.008399,0.041233,-0.009621,0.657702,38.585208,-2.090032
9643,2,-0.011366,0.123230,9.821939,0.040317,0.023671,-0.071624,6.737796,32.665885,-58.433204
9689,1,-0.046062,0.432503,9.996616,0.039554,0.040623,-0.010079,0.818474,38.906753,-1.753873
9689,2,-0.165105,0.108275,9.787842,0.039706,0.024740,-0.071319,7.059340,32.271266,-58.140892
9735,1,-0.037687,0.415753,10.006785,0.019242,0.042913,-0.012981,0.672318,38.672904,-2.177726
9735,2,-0.168694,0.115454,9.803395,0.032681,0.024282,-0.069180,7.147033,32.242034,-58.272434
9781,1,-0.022732,0.412164,10.003195,0.015730,0.038790,-0.017257,0.628471,38.336746,-1.753873
9781,2,-0.157926,0.123230,9.820145,0.031154,0.023824,-0.071624,7.293190,32.110492,-58.696289
9827,1,-0.026919,0.429512,10.021142,0.031001,0.035277,-0.019853,0.672318,38.117511,-1.856182
9827,2,-0.184247,0.126221,9.804592,0.041539,0.026878,-0.069333,6.869336,32.695117,-58.813213
9873,1,-0.030508,0.404985,10.003793,0.024740,0.039248,-0.018937,0.409237,38.117511,-2.031570
9873,2,-0.141775,0.120838,9.787243,0.039248,0.025656,-0.069639,7.000877,32.329730,-58.696289
9919,1,-0.038883,0.418744,10.033106,0.001222,0.036652,-0.020006,0.760012,38.278282,-2.513885
9919,2,-0.169292,0.116650,9.796216,0.033903,0.029016,-0.069791,6.986261,32.768196,-58.667057
9965,1,-0.048455,0.519243,10.007383,-0.047037,0.033292,-0.038637,0.891552,37.956737,-1.797720
9965,2,-0.135793,0.107677,9.806983,0.039248,0.023824,-0.071166,7.103186,32.285881,-58.959369
10011,1,-0.025723,0.422931,10.073185,-0.147371,0.034514,0.038637,0.482315,37.971351,-1.973107
10011,2,-0.151944,0.129811,9.805788,0.039095,0.021991,-0.067501,6.883952,32.563579,-57.673191
10057,1,-0.022732,0.579661,10.107283,-0.286496,0.031612,-0.001833,0.628471,36.948261,-1.651564
10057,2,-0.157328,0.120239,9.827921,0.031918,0.024893,-0.068264,7.059340,32.271266,-58.257820
10104,1,-0.138784,1.279562,10.004991,-2.549751,0.014508,0.176082,1.140017,33.645133,-0.979246
10104,2,-0.156132,0.084945,9.859028,0.037568,0.023213,-0.067653,6.474715,32.417423,-58.769363
10150,1,-0.053240,2.240878,9.504292,-0.080481,0.035736,-0.024740,0.906168,27.930429,-0.438468
10150,2,-0.174676,0.125623,9.810574,0.038637,0.021380,-0.069944,6.957030,32.578193,-58.871673
10196,1,-0.075972,2.187638,9.753745,-0.328645,0.021991,-0.087048,1.373867,28.295820,0.233850
10196,2,-0.168694,0.112463,9.796216,0.004429,0.020769,-0.074831,6.650102,32.519729,-58.696289
10242,1,-0.124427,2.353939,9.846466,-1.094365,0.043219,-0.028558,1.037708,26.176557,0.116925
10242,2,-0.303888,0.109472,9.853644,0.033445,0.028558,-0.071013,6.577024,32.417423,-58.564746
10288,1,-0.071785,2.948556,9.449855,-0.660498,-0.010996,-0.189368,1.651564,23.384975,2.104648
10288,2,-0.147159,0.122034,9.798609,0.031154,0.025504,-0.072082,6.723180,32.432037,-58.257820
10334,1,-0.102891,3.053242,9.583853,-0.035430,0.031612,-0.033750,0.672318,22.844198,2.148495
10334,2,-0.143569,0.135793,9.795021,0.035736,0.025656,-0.069791,6.708565,33.045894,-58.389358
10380,1,-0.091525,3.178267,9.490533,-0.300088,-0.015424,-0.071319,0.306928,22.113416,2.835428
10380,2,-0.129212,0.116052,9.824333,0.035736,0.022907,-0.070555,6.182403,32.373573,-57.483188
10425,1,-0.142971,3.218346,9.648460,-0.206931,-0.009316,-0.071624,-0.555393,21.514177,1.476176
10425,2,-0.194417,0.123230,9.812966,0.028558,0.022602,-0.070555,6.898568,32.563579,-58.374744
10471,1,-0.113061,3.496512,9.347562,-0.130572,0.024435,-0.058338,-0.321543,20.695703,2.557732
10471,2,-0.152542,0.144168,9.801600,0.035888,0.023824,-0.070708,6.562409,32.344345,-58.681671
10517,1,-0.121436,3.499503,9.400204,-0.003054,0.033750,-0.031612,0.073078,20.228002,2.645425
10517,2,-0.165703,0.117248,9.807582,0.035736,0.019395,-0.069639,7.176264,32.008186,-58.403976
10563,1,-0.121436,3.473780,9.452847,0.012675,0.038179,-0.024893,0.365390,20.301080,2.499269
10563,2,-0.163310,0.134596,9.820743,0.031460,0.025351,-0.070555,6.650102,32.534347,-58.038585
10609,1,-0.141177,3.518646,9.395419,-0.056047,0.028100,-0.047495,-0.014616,20.491085,2.703888
10609,2,-0.175872,0.155533,9.803993,0.034056,0.022602,-0.070555,6.387022,31.832796,-58.842445
10655,1,-0.107079,3.497110,9.364312,0.041692,0.039859,-0.020617,0.321543,19.467990,2.499269
10655,2,-0.154337,0.153739,9.799806,0.041081,0.023671,-0.070555,6.927799,32.125110,-58.111660
10702,1,-0.116052,3.536592,9.317652,0.104916,0.044135,-0.003512,0.511546,19.789535,3.595440
10702,2,-0.148953,0.126820,9.783655,0.040470,0.022449,-0.073304,6.737796,32.695117,-58.520900
10748,1,-0.262612,2.874378,9.769895,1.379334,0.137750,0.276264,0.950015,21.397253,2.645425
10748,2,-0.137587,0.131605,9.809975,0.040470,0.021380,-0.072846,6.606256,32.315109,-58.535514
10794,1,-0.134596,2.614757,9.667602,0.902553,0.050396,0.023824,0.935399,24.495761,0.570009
10794,2,-0.145962,0.143569,9.766305,0.034056,0.024129,-0.069486,6.957030,32.578193,-58.301662
10840,1,-0.148953,2.191825,9.714262,1.181719,0.065363,0.064752,0.993861,26.805028,-0.204619
10840,2,-0.117248,0.115454,9.798011,0.041539,0.020922,-0.072388,7.088570,32.899738,-58.360130
10885,1,-0.084945,1.981257,9.876975,0.657749,0.088575,-0.007178,1.271558,29.640457,-0.175387
10885,2,-0.142373,0.130409,9.808779,0.042761,0.022144,-0.071166,6.825489,32.373573,-58.798599
10931,1,-0.061615,1.541576,9.767502,0.835511,0.161116,0.027642,1.169249,31.423559,-0.760012
10931,2,-0.187837,0.037687,9.917653,0.080023,0.004429,-0.074220,6.518562,32.928966,-58.754749
10977,1,-0.037089,0.801596,10.196415,1.031904,0.033903,-0.110567,1.008477,35.282081,-1.154633
10977,2,-0.165105,0.113061,9.803395,0.037263,0.022449,-0.068111,6.854721,32.227416,-58.857059
11023,1,-0.027517,0.656830,10.012168,0.346819,0.038637,-0.049938,1.476176,37.035953,-1.695411
11023,2,-0.001795,0.128016,9.788440,0.036652,0.022449,-0.069486,6.708565,32.373573,-57.980121
11069,1,-0.051446,0.490529,10.016955,0.258243,0.050855,-0.060170,1.037708,38.102893,-1.169249
11069,2,-0.178265,0.123829,9.790234,0.034972,0.020159,-0.072846,6.708565,32.826660,-58.447818
11115,1,-0.019143,0.360718,10.031311,0.136223,0.038943,-0.069791,1.403099,38.336746,-1.651564
11115,2,-0.173480,0.109472,9.804592,0.035125,0.021228,-0.070250,7.030108,32.271266,-59.120143
11161,1,-0.072383,0.382253,10.024731,0.141873,0.038637,-0.109039,0.438468,38.745983,-1.666180
11161,2,-0.175274,0.150748,9.800404,0.040012,0.024740,-0.072235,6.357790,32.008186,-57.775505
11207,1,-0.021535,0.318844,10.031311,0.073151,0.040317,-0.053909,0.979246,39.067523,-1.739258
11207,2,-0.156730,0.111864,9.814762,0.038790,0.023366,-0.069639,6.825489,32.826660,-58.330898
11253,1,-0.048455,0.312263,9.978670,0.031765,0.038179,-0.021686,0.950015,38.906753,-1.812336
11253,2,-0.139382,0.128614,9.822538,0.034056,0.020464,-0.070402,6.679334,32.563579,-58.769363
11300,1,-0.004786,0.309871,10.004991,0.038485,0.040317,-0.034819,0.482315,38.497516,-1.315405
11300,2,-0.174676,0.102293,9.811171,0.044746,0.023671,-0.069486,7.117802,32.373573,-59.061676
11346,1,-0.031705,0.300897,10.006785,0.011454,0.036652,-0.011454,0.730780,38.965217,-1.841567
11346,2,-0.160917,0.133998,9.791431,0.034819,0.021533,-0.070708,7.439345,32.724349,-58.462436
11392,1,-0.015553,0.326620,9.982857,-0.035430,0.040317,0.024893,1.154633,38.395206,-1.826951
11392,2,-0.142971,0.139980,9.824333,0.040012,0.023671,-0.068570,6.796259,32.490501,-58.140892
11438,1,-0.012562,0.370888,10.030115,-0.086743,0.039554,0.044746,0.803858,38.263668,-2.484653
11438,2,-0.169292,0.130409,9.809975,0.035277,0.023518,-0.072388,6.489330,32.315109,-58.155513
11484,1,-0.026919,0.450449,9.997213,-0.227395,0.033750,0.049633,0.993861,38.365974,-2.002338
11484,2,-0.168694,0.121436,9.801600,0.039859,0.025504,-0.071166,7.220111,32.446651,-58.199356
11530,1,0.005982,0.685544,10.026526,-0.285885,0.038790,0.129351,0.774627,36.948261,-1.052324
11530,2,-0.129212,0.101097,9.846466,0.037263,0.023824,-0.070708,6.767027,32.242034,-57.907043
11576,1,-0.052642,1.070190,9.856636,-1.448514,0.019548,0.096822,0.789243,34.215141,-1.183864
11576,2,-0.164507,0.138186,9.815359,0.036957,0.023213,-0.070402,6.986261,32.578193,-58.579360
11622,1,-0.026321,1.618744,9.779467,-0.618959,0.001222,-0.110261,0.993861,31.701257,-1.271558
11622,2,-0.151944,0.123230,9.792030,0.034361,0.023518,-0.069486,6.913184,32.402809,-58.769363
11668,1,-0.030508,1.789832,9.891929,-0.702495,0.009163,-0.047800,0.964630,29.771995,-0.803858
11668,2,-0.148953,0.110070,9.811171,0.035736,0.023976,-0.071929,6.679334,32.870502,-57.658576
11713,1,-0.096311,2.242075,9.737592,-1.600620,0.024129,-0.087354,1.183864,27.170415,-0.496931
11713,2,-0.136989,0.106481,9.811770,0.038790,0.028405,-0.069639,6.971645,33.002044,-57.643962
11759,1,-0.096909,2.698506,9.691530,-0.819323,-0.018784,-0.220675,0.701549,23.750364,0.920783
11759,2,-0.160319,0.125623,9.799208,0.022907,0.027794,-0.070402,6.226250,32.958202,-57.833969
11805,1,-0.127418,3.053840,9.511470,-0.517555,-0.043524,-0.080176,0.482315,21.645717,1.359252
11805,2,-0.144766,0.119641,9.824333,0.035430,0.025809,-0.072846,6.503946,32.695117,-58.871673
11851,1,-0.118445,3.265007,9.504292,-0.234725,-0.014508,-0.076358,-0.423853,20.958784,1.987723
11851,2,-0.154935,0.156132,9.812369,0.038790,0.024129,-0.073609,6.547793,32.738964,-58.389358
11898,1,-0.125623,3.323631,9.437891,0.043982,0.043677,-0.024587,-0.073078,20.403390,1.929260
11898,2,-0.156730,0.122632,9.819546,0.041692,0.024587,-0.071013,6.547793,32.344345,-58.023971
11944,1,-0.178265,3.284747,9.538390,-0.600633,-0.028863,-0.188452,0.423853,20.330312,2.791581
11944,2,-0.165703,0.147757,9.789038,0.029627,0.025809,-0.070860,6.313943,32.592807,-58.988601
11990,1,-0.128614,3.512066,9.362518,0.047647,0.038637,-0.023518,0.409237,19.818765,2.075417
11990,2,-0.162114,0.147159,9.811770,0.044899,0.023213,-0.073609,6.416252,32.534347,-58.330898
12036,1,0.010169,3.446861,8.629715,3.031266,0.289856,0.759611,0.935399,20.681087,1.797720
12036,2,-0.117248,0.128614,9.795021,0.041081,0.021991,-0.077274,7.132418,32.315109,-58.871673
12082,1,-1.325624,0.218943,15.884155,4.617225,-0.064141,-0.017410,1.286174,35.442852,-1.461561
12082,2,-0.299701,0.093320,9.769297,0.036957,0.025962,-0.071013,7.000877,32.329730,-59.178604
12128,1,-0.046660,0.604786,10.030713,0.198226,0.048564,-0.071777,1.607717,37.664424,-2.163110
12128,2,-0.242871,0.196211,9.778270,0.034056,0.018784,-0.149204,7.015493,31.949722,-59.207832
12174,1,0.028116,0.440878,10.138989,-0.178831,0.023213,0.037110,1.549255,37.752117,-2.353113
12174,2,-0.189631,0.121436,9.812966,0.031918,0.022144,-0.072235,6.781643,32.388191,-58.608592
12220,1,0.091525,0.491127,11.137991,-4.577824,-0.105832,0.034667,1.476176,32.943580,-1.183864
12220,2,-0.147159,0.007178,9.981660,0.024435,0.031612,-0.062766,6.752411,32.081264,-58.564746
12266,1,-0.052642,3.393621,8.787043,-0.931417,-0.115148,-0.208305,0.087694,22.157264,1.870798
12266,2,-0.143569,0.143569,9.767502,0.039706,0.023824,-0.075595,6.430868,32.695117,-58.360130
12312,1,0.448056,3.924828,7.508080,2.616794,0.257938,0.741132,0.482315,21.368021,1.593101
12312,2,-0.137587,0.175872,9.829117,0.047495,0.018631,-0.074067,6.577024,31.598945,-59.207832
12358,1,0.558126,-0.055633,11.024333,0.732733,0.084452,-0.211665,1.534639,37.825195,-1.695411
12358,2,-0.178864,0.098106,9.789636,0.038026,0.025045,-0.068875,6.810874,31.350481,-58.301662
12404,1,0.047258,0.448056,10.173684,-0.425162,0.013134,0.081092,1.943876,37.503654,-2.192341
12404,2,-0.150748,0.144766,9.787243,0.038179,0.027947,-0.071929,7.059340,32.139724,-58.754749
12451,1,0.088534,0.781257,10.677374,-1.935068,-0.004276,-0.049327,1.753873,35.545162,-1.476176
12451,2,-0.147159,0.084347,9.841081,0.034056,0.025656,-0.071471,6.737796,31.657409,-58.652442
12497,1,0.432503,2.432304,8.401799,-3.064100,-0.132100,-0.552069,1.359252,26.001171,0.306928
12497,2,-0.151944,0.073579,9.734601,0.033292,0.025809,-0.069639,7.000877,32.724349,-57.585502
12543,1,0.044865,2.126621,7.939984,4.153578,0.198837,0.584598,1.476176,25.416543,0.043847
12543,2,-0.147757,-0.256630,10.183853,0.058796,0.016188,-0.083230,7.380883,32.110492,-58.477054
12588,1,-0.043071,1.183251,9.715458,-0.281762,-0.016035,-0.270155,1.578486,35.910552,-1.900029
12588,2,-0.142373,0.112463,9.786046,0.031307,0.028711,-0.071166,6.810874,32.402809,-58.520900
12634,1,0.025723,0.946960,9.974482,-0.397368,0.020006,-0.367283,1.242327,34.916690,-1.943876
12634,2,-0.180658,0.095713,9.790833,0.036194,0.025809,-0.070402,6.840106,31.686643,-58.842445
12680,1,-0.825524,0.167498,11.571092,-2.211943,0.007636,-0.329409,1.081555,34.858230,-1.739258
12680,2,-0.142971,-0.004187,9.828520,0.028100,0.029627,-0.070097,6.372406,31.701257,-58.506286
12726,1,0.473181,2.500500,7.622337,2.820976,0.144775,0.669356,1.183864,28.880443,-0.774627
12726,2,-0.101695,0.585643,9.602996,0.043830,0.018173,-0.075442,6.547793,31.803565,-58.213973
12772,1,-0.009571,1.025324,9.784851,0.031765,0.041844,-0.003818,1.783104,35.369773,-1.198480
12772,2,-0.166301,0.131007,9.819546,0.035583,0.021838,-0.069944,6.957030,31.847414,-58.696289
12818,1,0.558724,0.180060,10.089337,-0.233351,0.036805,-0.020311,1.534639,35.457466,-1.227711
12818,2,-0.414557,-0.158525,9.837492,0.026420,0.027336,-0.027642,7.000877,32.168956,-58.798599
12864,1,0.082552,2.089532,9.793824,-3.171460,-0.049633,-0.683558,1.476176,28.705057,-0.394621
12864,2,-0.153141,0.119641,9.825529,0.018784,0.036194,-0.070708,6.781643,32.607425,-58.126277
12910,1,0.597607,2.712265,8.451450,2.630538,0.098349,0.397673,1.476176,26.015785,0.116925
12910,2,-0.038285,0.111266,9.635299,0.049022,0.018173,-0.069944,6.226250,32.227416,-58.287048
12956,1,-0.080758,0.848854,10.881959,0.784656,0.008094,-0.134543,1.870798,32.665885,-1.476176
12956,2,-0.170489,0.106481,9.832109,0.033292,0.030238,-0.067653,7.117802,31.598945,-58.506286
13002,1,0.263210,2.575874,9.722637,-4.338976,-0.074373,-0.632093,1.695411,25.825780,0.263081
13002,2,-0.132802,0.058624,9.897912,-0.014050,0.049633,-0.065363,6.547793,31.920490,-57.760887
13049,1,0.308076,2.985644,8.553743,2.486069,0.240528,0.872163,1.154633,22.917274,1.300789
13049,2,-0.127418,0.169292,9.798011,0.040928,0.016952,-0.067195,7.366267,32.461269,-58.213973
13095,1,-0.229711,1.616352,10.478769,0.033139,0.034056,-0.009468,1.797720,34.083602,-1.914645
13095,2,-0.184247,0.190828,9.766305,0.034361,0.021838,-0.069180,6.620871,32.388191,-58.506286
13141,1,-0.023330,1.176072,9.976875,-0.034056,0.040928,-0.027184,1.198480,34.302837,-2.440807
13141,2,-0.156132,0.094516,9.843474,0.029780,0.025656,-0.069486,6.767027,32.490501,-58.725517
13187,1,0.001795,1.958525,9.973285,-4.621654,-0.101556,-1.082911,1.256942,29.260450,-0.526162
13187,2,-0.168694,0.140578,9.820145,-0.013592,0.047495,-0.064141,6.474715,32.490501,-58.813213
13233,1,0.401396,3.591029,7.689934,1.440573,0.185550,0.482736,0.906168,22.508039,1.110786
13233,2,-0.152542,0.166899,9.742977,0.042302,0.021075,-0.073304,6.620871,32.183570,-58.593975
13278,1,0.316451,1.663012,10.034900,0.033750,0.023060,-0.158367,0.789243,33.805904,-1.432330
13278,2,-0.137587,0.188435,9.837492,0.028558,0.024282,-0.068722,6.577024,32.636657,-57.600116
13324,1,0.457029,1.028914,11.255240,-2.856406,0.030696,0.231976,1.242327,33.177433,-1.710026
13324,2,-0.163310,0.108873,9.783655,0.032987,0.025198,-0.069180,6.328559,32.066646,-57.950889
13370,1,-0.052044,2.986841,9.740583,-0.389732,-0.022449,-0.075289,1.330020,22.975738,0.935399
13370,2,-0.171685,0.115454,9.805788,0.042302,0.019242,-0.074067,6.416252,32.168956,-58.418590
13416,1,0.303290,2.669194,7.910672,5.003444,-0.153174,-0.849714,0.570009,26.980415,-0.160772
13416,2,-0.233300,0.183051,9.993026,0.061392,0.015119,-0.071777,6.650102,32.242034,-58.652442
13462,1,0.452243,1.717448,10.012767,0.063530,0.072235,0.433867,0.570009,33.645133,-0.950015
13462,2,-0.165703,0.115454,9.896117,0.041386,0.023366,-0.076053,6.591639,32.037414,-58.725517
13508,1,-0.468993,2.860021,7.936395,-3.694971,-0.371101,-0.488845,1.286174,22.888044,1.256942
13508,2,-0.133998,0.118445,9.848859,0.011148,0.036041,-0.066279,6.547793,31.788951,-58.301662
13554,1,0.073579,3.418147,8.521440,1.882228,0.190590,0.465632,0.833090,22.011106,0.833090
13554,2,-0.177667,0.133400,9.842278,0.039554,0.019853,-0.069333,7.000877,32.052032,-58.754749
13600,1,-0.878166,1.754537,8.795418,-0.044899,-0.034514,-0.640339,1.008477,33.820518,-0.993861
13600,2,-0.159721,-0.019741,9.936795,0.038943,0.026573,-0.073304,6.693949,32.242034,-57.833969
13647,1,0.336192,2.797808,11.540585,-5.004208,0.161116,0.294284,1.198480,29.596609,0.686934
13647,2,0.406780,-0.102891,9.999606,-0.085827,0.080023,-0.041997,5.977784,32.388191,-58.447818
13693,1,-0.579661,4.240680,8.182856,0.104305,0.042913,-0.009774,0.833090,20.228002,2.733119
13693,2,-0.270987,-0.306281,9.626925,0.062461,0.012217,-0.085063,6.869336,32.402809,-58.871673
13739,1,-0.748954,3.577868,6.400202,5.003444,0.094684,-1.371698,0.716165,28.895059,-0.833090
13739,2,-0.153141,0.174078,9.802796,0.054672,0.017410,-0.073762,6.927799,31.847414,-59.237064
13785,1,0.694517,1.186242,10.100703,-0.214566,0.040012,0.196699,0.467700,39.286758,-1.227711
13785,2,-0.193819,0.117847,9.781859,0.035430,0.022907,-0.071319,6.883952,31.920490,-58.564746
13831,1,-0.610170,0.479761,18.532411,5.003444,0.245262,-0.740674,1.271558,34.375915,-2.221573
13831,2,-0.014955,0.095713,9.933205,0.041233,0.018631,-0.073151,6.942414,31.964338,-58.272434
13877,1,-2.117050,0.535992,7.420143,5.003444,0.301157,-1.153008,1.417714,36.115169,-1.783104
13877,2,-0.085543,-0.614955,5.712864,0.080940,-0.056047,-0.087812,6.708565,31.686643,-58.243202
13923,1,1.023530,-0.141775,10.293923,-0.034056,0.060628,0.015882,2.002338,41.712947,-1.973107
13923,2,-0.176471,0.084347,9.726226,0.044899,0.022144,-0.080940,6.460100,31.949722,-58.754749
13969,1,0.071186,0.377468,10.906486,0.060476,0.041997,-0.022144,1.256942,36.246711,-1.505408
13969,2,-0.154337,0.114257,9.816555,0.035277,0.025809,-0.071013,6.854721,31.774335,-58.462436
14015,1,-0.092722,0.821336,9.985848,0.016799,0.042302,-0.017868,1.344636,35.749782,-1.242327
14015,2,-0.161516,0.120838,9.798011,0.039401,0.022907,-0.071471,6.591639,32.300495,-58.973987
14060,1,-0.056830,0.789033,9.990633,0.023518,0.040164,-0.018326,1.344636,35.837474,-2.046185
14060,2,-0.141775,0.135194,9.791431,0.040928,0.025504,-0.070555,6.737796,31.964338,-59.163986
14106,1,-0.066999,0.776471,9.835698,0.021380,0.038485,-0.016341,1.636948,36.042095,-2.163110
14106,2,-0.180060,0.109472,9.797412,0.040928,0.022602,-0.067959,6.460100,31.686643,-57.673191
14152,1,-0.043669,0.815953,9.961919,0.019853,0.038332,-0.022449,1.578486,35.881320,-2.236188
14152,2,-0.154935,0.124427,9.819546,0.038179,0.021686,-0.071777,6.562409,32.724349,-58.374744
14199,1,-0.056830,0.784846,9.990633,0.024435,0.041386,-0.021380,1.271558,35.662086,-1.052324
14199,2,-0.162114,0.110668,9.798609,0.037874,0.025504,-0.072082,6.869336,32.285881,-58.740131
14245,1,-0.044865,0.790828,9.987642,0.023518,0.043066,-0.017715,1.388483,35.895938,-1.549255
14245,2,-0.174078,0.133400,9.790833,0.038943,0.024435,-0.071777,6.927799,31.949722,-59.441684
14291,1,-0.062812,0.795015,9.946964,0.028863,0.041233,-0.018937,1.256942,36.100555,-1.710026
14291,2,-0.170489,0.121436,9.803395,0.040775,0.025045,-0.069028,6.869336,32.417423,-59.090908
14337,1,-0.050249,0.792622,9.976875,0.024587,0.077427,-0.020617,1.446945,35.910552,-1.841567
14337,2,-0.132802,0.095713,9.795619,0.038332,0.028100,-0.071471,6.445484,31.964338,-59.660919
14383,1,-0.072981,0.795614,9.962517,0.023518,0.038485,-0.018326,1.037708,35.983631,-1.900029
14383,2,-0.154935,0.110668,9.806983,0.029169,0.027336,-0.070097,6.737796,32.212802,-59.617073
14429,1,-0.064606,0.780658,9.943375,0.021380,0.040317,-0.020922,1.066940,36.129787,-1.943876
14429,2,-0.151944,0.108873,9.803395,0.038790,0.023060,-0.072540,6.533177,32.300495,-59.251678
14475,1,-0.049053,0.804587,9.979267,0.038179,0.039859,-0.021686,1.256942,35.837474,-1.403099
14475,2,-0.163310,0.129811,9.743575,0.051007,0.022449,-0.070555,6.693949,32.168956,-58.944755
14520,1,-0.052642,0.794417,9.992428,0.028100,0.035277,-0.017410,1.403099,35.852088,-1.578486
14520,2,-0.200399,0.017946,9.803993,0.055589,0.019548,-0.078038,6.679334,32.402809,-59.266300
14566,1,-0.141177,0.817149,10.034900,0.028863,0.030391,-0.120646,1.417714,36.290557,-1.520023
14566,2,-0.008973,0.465404,9.503095,0.029780,0.020159,-0.157298,6.942414,32.592807,-58.535514
14612,1,-0.002991,0.661017,10.265808,0.055589,0.039401,-0.025504,0.701549,36.115169,-1.812336
14612,2,-0.285344,0.116052,9.586844,0.040928,0.023366,-0.069180,6.781643,32.256652,-58.243202
14658,1,-0.071785,0.810569,9.933205,0.021991,0.038790,-0.022602,1.446945,35.969017,-1.227711
14658,2,-0.125025,0.087936,9.817751,0.033445,0.023366,-0.071471,6.372406,31.832796,-58.301662
14704,1,-0.051446,0.765703,9.985848,0.020617,0.039554,-0.023976,1.373867,36.261325,-1.680795
14704,2,-0.150748,0.090329,9.777073,0.043677,0.023518,-0.070555,6.898568,32.110492,-58.564746
14750,1,-0.072383,0.781855,9.944572,0.021838,0.041233,-0.016952,0.906168,35.603626,-1.593101
14750,2,-0.173480,0.105284,9.835698,0.000458,0.020769,-0.071624,6.255481,31.818181,-59.412448
14797,1,-0.038883,0.776471,10.024132,0.023518,0.035888,-0.018937,1.520023,35.983631,-2.309266
14797,2,-0.294915,0.080160,9.803993,0.040317,0.025962,-0.070860,6.328559,32.315109,-59.237064
14843,1,-0.056830,0.765105,9.973285,0.025045,0.038485,-0.015882,1.198480,36.232097,-1.753873
14843,2,-0.170489,0.108873,9.796814,0.035736,0.022755,-0.070860,6.737796,32.242034,-58.871673
14889,1,-0.066401,0.784846,9.999008,0.025656,0.038332,-0.018326,1.359252,36.480560,-1.373867
14889,2,-0.160319,0.118445,9.806983,0.038026,0.022297,-0.070402,6.606256,32.826660,-58.871673
14935,1,-0.043071,0.785444,9.991232,0.021075,0.039248,-0.019700,1.505408,36.173633,-1.666180
14935,2,-0.013759,0.079561,9.792628,0.037110,0.021991,-0.069639,6.957030,32.578193,-58.316284
14981,1,-0.059222,0.764507,9.985250,0.024129,0.038637,-0.021991,1.724642,35.735164,-2.323882
14981,2,-0.139382,0.083749,9.802796,0.034208,0.023976,-0.069486,6.796259,32.709732,-58.915519
15026,1,-0.056231,0.767498,9.982857,0.023824,0.039706,-0.017562,1.227711,35.895938,-1.885414
15026,2,-0.141177,0.096909,9.815958,0.036957,0.024740,-0.073304,7.190880,32.958202,-58.477054
15072,1,-0.074776,0.765105,9.985848,0.021991,0.039095,-0.020922,1.300789,35.866703,-2.543116
15072,2,-0.171685,0.095115,9.797412,0.036957,0.025504,-0.073304,6.840106,32.738964,-58.623207
15118,1,-0.059821,0.765703,9.964910,0.024893,0.039859,-0.018479,1.578486,36.173633,-2.528500
15118,2,-0.166301,0.105284,9.811171,0.038179,0.026267,-0.072540,6.328559,32.505115,-58.871673
15164,1,-0.058026,0.772882,9.967303,0.018631,0.039248,-0.017562,1.520023,35.822860,-1.783104
15164,2,-0.148953,0.086142,9.810574,0.038026,0.023518,-0.071013,6.474715,32.402809,-58.126277
15210,1,-0.067597,0.790828,9.981660,0.024282,0.040470,-0.018937,1.227711,36.159019,-1.739258
15210,2,-0.175872,0.110070,9.812966,0.038332,0.021686,-0.069333,6.825489,32.709732,-58.155513
15256,1,-0.052044,0.798604,9.974482,0.025809,0.040928,-0.018021,1.154633,36.012859,-1.125402
15256,2,-0.174676,0.099900,9.794422,0.040317,0.023518,-0.071929,7.044723,32.797428,-58.301662
15302,1,-0.062812,0.784846,9.955938,0.023060,0.038637,-0.018479,1.271558,35.895938,-1.783104
15302,2,-0.182453,0.092124,9.783655,0.039706,0.021991,-0.076053,7.059340,33.060508,-58.023971
15348,1,-0.055035,0.783649,9.985250,0.022755,0.041233,-0.017257,1.169249,36.290557,-1.286174
15348,2,-0.166899,0.081356,9.775279,0.077274,0.026725,-0.069028,7.044723,33.425899,-58.213973
15395,1,-0.051446,0.781855,9.991232,0.021686,0.041081,-0.018479,1.140017,36.217479,-0.993861
15395,2,-0.158525,0.109472,9.798609,0.037874,0.022755,-0.069944,6.737796,33.075122,-58.228588
15441,1,-0.063410,0.757328,9.970294,0.023366,0.034361,-0.018784,1.622333,35.705932,-0.701549
15441,2,-0.159721,0.099302,9.806983,0.036499,0.021533,-0.071471,6.591639,33.279743,-58.871673
15486,1,-0.059222,0.781257,9.979866,0.019395,0.038485,-0.021838,1.417714,36.290557,-1.739258
15486,2,-0.183649,0.098704,9.811770,0.038026,0.030391,-0.070708,6.211634,32.753582,-58.652442
15532,1,-0.046660,0.792024,9.981062,0.022755,0.038485,-0.020617,1.373867,36.261325,-1.520023
15532,2,-0.014357,0.095713,9.810574,0.041692,0.025045,-0.071929,7.322420,32.768196,-58.477054
15578,1,-0.032303,0.780060,9.979866,0.022602,0.037415,-0.018021,1.417714,36.188247,-1.081555
15578,2,-0.154935,0.079561,9.794422,0.034972,0.022144,-0.071929,6.430868,32.665885,-58.067817
15624,1,-0.069990,0.769891,9.987045,0.025351,0.038026,-0.020769,1.373867,35.925167,-0.760012
15624,2,-0.175274,0.093918,9.796216,0.036499,0.021075,-0.069944,6.547793,32.402809,-58.579360
15670,1,-0.046660,0.780060,9.957732,0.023060,0.038943,-0.018173,1.256942,36.159019,-0.686934
15670,2,-0.148355,0.097508,9.824333,0.034514,0.024282,-0.069944,6.840106,32.665885,-58.740131
15716,1,-0.036491,0.760918,9.974482,0.024129,0.036346,-0.016646,1.154633,35.866703,-1.490792
15716,2,-0.154337,0.092124,9.795021,0.031918,0.021838,-0.073609,6.620871,32.914352,-58.842445
15762,1,-0.062213,0.802194,9.993625,0.018326,0.037568,-0.017715,1.593101,35.969017,-2.104648
15762,2,-0.162114,0.091525,9.780065,0.040775,0.024740,-0.071166,6.284712,32.841274,-58.579360
15808,1,-0.053839,0.781257,9.969098,0.026420,0.000764,-0.022297,1.344636,35.895938,-1.929260
15808,2,-0.171087,0.095713,9.789636,0.036194,0.022297,-0.068570,6.211634,32.548961,-59.032447
15854,1,-0.076570,0.765703,9.982857,0.020922,0.037415,-0.019242,1.213096,36.144401,-2.090032
15854,2,-0.159123,0.097508,9.798011,0.040775,0.024435,-0.072235,6.810874,32.987430,-58.111660
15899,1,-0.059821,0.774676,9.991829,0.020617,0.041081,-0.020922,0.891552,35.764396,-1.739258
15899,2,-0.164507,0.106481,9.803395,0.038026,0.024129,-0.069486,7.234727,33.045894,-58.243202
15945,1,-0.050249,0.764507,9.982857,0.025045,0.037874,-0.017410,1.549255,36.334403,-2.075417
15945,2,-0.171685,0.079561,9.823137,0.038026,0.025962,-0.070555,6.810874,32.870502,-58.345516
15992,1,-0.042473,0.768096,9.993625,0.027642,0.040928,-0.016341,1.549255,36.319789,-2.016954
15992,2,-0.160917,0.123829,9.808181,0.032834,0.020769,-0.072235,6.869336,32.592807,-58.199356
16038,1,-0.075972,0.772283,9.970891,0.024587,0.040623,-0.018631,1.359252,35.881320,-1.987723
16038,2,-0.168096,0.089731,9.813565,0.037110,0.025962,-0.072693,5.875475,32.607425,-58.579360
16084,1,-0.076570,0.763909,9.993625,0.025045,0.041997,-0.020159,1.037708,36.334403,-1.826951
16084,2,-0.191426,0.109472,9.801002,0.034208,0.024587,-0.071013,6.372406,32.534347,-58.287048
16130,1,-0.049651,0.769292,9.991232,0.021838,0.040164,-0.021075,1.768489,35.925167,-1.841567
16130,2,-0.169890,0.104088,9.816555,0.039706,0.025351,-0.071166,6.460100,32.899738,-58.564746
16176,1,-0.065204,0.764507,9.975678,0.023366,0.039095,-0.020159,1.052324,36.261325,-1.914645
16176,2,-0.172881,0.092722,9.815958,0.036805,0.020006,-0.069180,6.284712,32.972816,-57.965503
16222,1,-0.040678,0.786042,10.104291,0.025045,0.038179,-0.018479,1.242327,35.910552,-2.557732
16222,2,-0.139382,0.095713,9.774681,0.036957,0.021228,-0.072846,6.650102,32.870502,-57.614730
16268,1,-0.035892,0.786641,10.003195,0.024282,0.038943,-0.019700,1.476176,36.159019,-1.227711
16268,2,-0.131605,0.080160,9.766305,0.037568,0.021991,-0.070708,6.240865,32.183570,-57.994739
16314,1,-0.067597,0.762114,9.918250,0.022755,0.040317,-0.016493,1.008477,36.056709,-1.549255
16314,2,-0.155533,0.099900,9.831510,0.041539,0.022755,-0.070402,6.123940,32.665885,-57.965503
16359,1,-0.047856,0.780060,10.003793,0.024435,0.040470,-0.021991,1.520023,36.056709,-2.133879
16359,2,-0.173480,0.098704,9.774083,0.036957,0.020922,-0.072693,6.650102,32.885124,-58.184741
16405,1,-0.056231,0.760918,9.975079,0.024587,0.039554,-0.020006,1.651564,35.647472,-1.607717
16405,2,-0.144766,0.085543,9.805190,0.075900,0.023518,-0.071319,6.591639,32.738964,-58.213973
