millis,id,ax,ay,az,gx,gy,gz,mx,my,mz
1,1,-0.114855,0.329611,9.999606,0.025809,0.040164,-0.021380,-1.344636,38.102893,-5.948553
1,2,-0.142373,0.309272,9.988839,0.019090,0.037721,-0.018479,-1.549255,38.059047,-5.904706
47,1,-0.156730,0.312263,9.930812,0.022449,0.036805,-0.019548,-1.622333,38.059047,-5.276235
47,2,-0.117847,0.309272,10.016356,0.019853,0.038179,-0.018937,-2.002338,38.015201,-5.130079
93,1,-0.117847,0.330210,10.049856,0.025198,0.038943,-0.018784,-1.256942,37.898273,-4.866998
93,2,-0.101097,0.351147,9.947563,0.020006,0.038026,-0.019242,-1.169249,37.854427,-5.159310
138,1,-0.156730,0.337986,9.998410,0.023518,0.040928,-0.018479,-1.958492,37.825195,-5.422391
138,2,-0.144168,0.343968,10.033106,0.023671,0.040928,-0.021075,-1.900029,38.000583,-5.495469
184,1,-0.107079,0.313460,10.030115,0.022144,0.040623,-0.018326,-1.432330,38.117511,-5.203157
184,2,-0.145364,0.326620,10.029517,0.024435,0.038026,-0.019242,-1.432330,38.161354,-5.290851
230,1,-0.152542,0.337986,10.010374,0.023824,0.041997,-0.017868,-1.432330,38.526744,-5.217772
230,2,-0.151346,0.323629,9.998410,0.028405,0.039095,-0.018021,-1.037708,38.059047,-5.378544
276,1,-0.108275,0.339781,10.034900,0.030696,0.035736,-0.019395,-1.344636,38.263668,-4.691610
276,2,-0.138186,0.351745,10.020544,0.029322,0.041997,-0.019853,-1.344636,38.190589,-5.553932
322,1,-0.154337,0.316451,10.034900,0.032681,0.038179,-0.020159,-1.578486,38.117511,-5.495469
322,2,-0.138784,0.323031,9.970891,0.029780,0.040928,-0.017410,-1.812336,37.869045,-5.933938
369,1,-0.099900,0.315254,9.995420,0.025045,0.038790,-0.021991,-1.403099,37.912891,-5.320082
369,2,-0.144168,0.314058,10.071392,0.022449,0.040317,-0.019242,-1.578486,37.883659,-5.597778
415,1,-0.128016,0.334995,10.022338,0.025351,0.042302,-0.019090,-1.373867,38.059047,-5.276235
415,2,-0.303290,0.329013,9.994821,0.022144,0.033292,-0.018784,-1.826951,37.942123,-5.612394
461,1,-0.139980,0.336790,10.003195,0.028863,0.041539,-0.017562,-1.461561,38.146739,-5.276235
461,2,-0.135194,0.324227,10.018151,0.023824,0.037263,-0.017257,-1.432330,38.161354,-5.159310
507,1,-0.133998,0.339781,9.977473,0.028100,0.038026,-0.017715,-1.680795,37.971351,-5.977784
507,2,-0.129811,0.351147,10.002597,0.024282,0.040164,-0.017868,-1.359252,37.722888,-6.007015
552,1,-0.115454,0.334397,10.024731,0.023213,0.036652,-0.017715,-1.446945,38.146739,-6.693949
552,2,-0.133400,0.326620,10.015160,0.017868,0.034819,-0.017868,-1.520023,37.708274,-6.313943
598,1,-0.163908,0.354736,9.995420,0.021991,0.039554,-0.017715,-2.031570,38.015201,-5.992400
598,2,-0.152542,0.312862,10.036695,0.029627,0.042608,-0.019090,-1.607717,37.898273,-5.802397
644,1,-0.141775,0.345165,9.985250,0.023976,0.041844,-0.018631,-1.417714,37.898273,-7.410114
644,2,-0.136989,0.343370,9.998410,0.023213,0.041081,-0.020922,-1.271558,37.839813,-6.518562
690,1,-0.136391,0.320638,10.009776,0.025656,0.041081,-0.020922,-1.724642,38.088275,-6.825489
690,2,-0.155533,0.330210,10.016356,0.024129,0.040928,-0.019090,-1.753873,37.985969,-6.752411
736,1,-0.110668,0.315254,10.012168,0.020159,0.039706,-0.019853,-1.885414,38.029815,-6.387022
736,2,-0.134596,0.333201,10.010972,0.021380,0.036346,-0.020617,-1.768489,37.883659,-5.729319
782,1,-0.151944,0.334397,9.999606,0.021838,0.038637,-0.018173,-1.373867,37.839813,-6.007015
782,2,-0.142971,0.328415,10.015160,0.027336,0.040623,-0.016188,-1.534639,37.693656,-6.533177
828,1,-0.122632,0.320638,10.028320,0.023671,0.040317,-0.016799,-1.695411,37.883659,-6.240865
828,2,-0.142373,0.330808,9.991829,0.021991,0.037568,-0.018784,-1.549255,37.898273,-6.153172
874,1,-0.138784,0.335593,10.028919,0.021991,0.037874,-0.019242,-1.286174,37.854427,-6.357790
874,2,-0.147757,0.326620,10.012767,0.024740,0.038637,-0.016035,-1.739258,38.059047,-6.591639
920,1,-0.151346,0.313460,9.997213,0.018631,0.036499,-0.018021,-1.666180,38.073661,-6.343175
920,2,-0.167498,0.314656,9.997213,0.022449,0.037263,-0.021380,-1.710026,38.132125,-5.919322
966,1,-0.138784,0.339781,10.007383,0.018326,0.036499,-0.018784,-1.593101,37.679039,-5.729319
966,2,-0.149551,0.329611,10.011570,0.018326,0.038790,-0.020006,-1.563870,37.752117,-5.919322
1012,1,-0.148953,0.336192,10.001400,0.023366,0.036957,-0.019548,-1.593101,38.190589,-6.167788
1012,2,-0.289532,0.306281,10.050454,0.022755,0.036499,-0.017410,-1.534639,37.839813,-6.416252
1058,1,-0.147757,0.357129,10.033106,0.024435,0.041539,-0.017562,-1.213096,37.737503,-6.226250
1058,2,-0.122034,0.349352,10.003195,0.022449,0.039248,-0.020006,-1.344636,37.532882,-5.977784
1104,1,-0.162712,0.305085,10.041480,0.027031,0.035888,-0.018631,-1.549255,37.693656,-6.284712
1104,2,-0.129811,0.320040,10.038490,0.021991,0.037568,-0.016035,-1.563870,37.679039,-5.846244
1150,1,-0.150150,0.333799,10.040883,0.022449,0.041233,-0.018631,-0.950015,37.766735,-5.831628
1150,2,-0.136391,0.339781,10.009776,0.020311,0.039401,-0.023671,-1.359252,38.132125,-6.109325
1196,1,-0.135194,0.309272,9.990035,0.021228,0.039095,-0.020769,-1.563870,37.752117,-6.123940
1196,2,-0.145962,0.320040,10.058231,0.021991,0.076358,-0.020006,-1.797720,38.351360,-6.240865
1242,1,-0.122034,0.337388,10.037294,0.020922,0.039554,-0.021228,-1.198480,37.883659,-5.597778
1242,2,-0.147757,0.337986,9.979267,0.025504,0.036194,-0.023824,-1.797720,38.336746,-6.021631
1288,1,-0.149551,0.344567,9.972687,0.021228,0.039554,-0.020159,-1.271558,38.059047,-5.086232
1288,2,-0.111864,0.320040,10.036695,0.018173,0.040928,-0.018937,-1.388483,38.336746,-5.963169
1334,1,-0.129811,0.333201,10.010972,0.018937,0.038026,-0.019700,-1.330020,38.307510,-5.641625
1334,2,-0.140578,0.338584,10.034900,0.027489,0.040470,-0.018784,-1.315405,38.044433,-5.393160
1380,1,-0.141177,0.337388,10.004392,0.024129,0.041233,-0.020617,-1.549255,38.146739,-5.495469
1380,2,-0.136391,0.320638,10.026526,0.020769,0.036499,-0.016952,-1.607717,37.912891,-6.080093
1426,1,-0.109472,0.381057,9.963115,0.016493,0.040164,-0.018326,-1.593101,37.825195,-5.933938
1426,2,-0.146560,0.367298,9.997812,0.007941,0.039859,-0.018631,-1.271558,38.322128,-5.860859
1471,1,-0.023928,0.080160,10.180264,0.038332,0.046273,-0.021533,-1.461561,38.073661,-5.817012
1471,2,-0.092124,0.400200,9.741780,0.049786,0.048564,-0.020311,-1.476176,38.132125,-6.182403
1517,1,-0.103490,0.334397,9.965509,0.031460,0.042302,-0.020159,-1.432330,37.825195,-5.919322
1517,2,-0.135793,0.329013,10.006785,0.033598,0.044135,-0.017410,-1.417714,38.102893,-6.270096
1564,1,-0.143569,0.337388,10.017552,0.027947,0.044593,-0.018326,-1.198480,38.234432,-5.831628
1564,2,-0.136989,0.344567,10.042078,0.024587,0.041997,-0.019853,-1.476176,38.073661,-6.562409
1610,1,-0.126820,0.342772,10.028320,0.023976,0.041386,-0.017715,-1.227711,38.219818,-5.363928
1610,2,-0.101695,0.333201,10.031311,0.023060,0.038637,-0.018021,-1.505408,38.146739,-6.211634
1656,1,-0.129212,0.332602,10.012767,0.023671,0.040164,-0.019242,-1.242327,38.380588,-5.758550
1656,2,-0.123829,0.363709,10.009178,0.022602,0.040775,-0.019853,-1.490792,38.249050,-6.123940
1702,1,-0.125025,0.315853,9.996017,0.024587,0.038790,-0.019242,-1.446945,38.088275,-5.875475
1702,2,-0.139382,0.335593,10.001999,0.022907,0.043371,-0.018784,-1.140017,37.912891,-5.860859
1748,1,-0.122632,0.352941,10.012168,0.027489,0.041386,-0.020311,-1.651564,38.161354,-5.890091
1748,2,-0.148355,0.314656,10.013365,0.019700,0.036805,-0.018021,-1.417714,37.869045,-5.641625
1794,1,-0.112463,0.339781,10.018749,0.022449,0.077885,-0.020311,-1.344636,38.117511,-5.714704
1794,2,-0.156730,0.309272,10.011570,0.022144,0.037110,-0.016799,-1.870798,38.161354,-5.817012
1840,1,-0.136391,0.339781,10.014561,0.022755,0.036652,-0.015424,-1.607717,38.614440,-6.810874
1840,2,-0.116052,0.334995,10.029517,0.019853,0.040623,-0.016799,-1.651564,38.351360,-6.343175
1886,1,-0.151944,0.326022,10.018151,0.023671,0.037110,-0.020464,-1.432330,38.132125,-5.963169
1886,2,-0.128016,0.342174,10.038490,0.029322,0.039554,-0.016952,-1.563870,38.351360,-6.036247
1931,1,-0.147757,0.327817,10.010972,0.024587,0.038332,-0.019242,-2.148495,37.664424,-5.086232
1931,2,-0.143569,0.326022,10.018151,0.020922,0.038943,-0.021838,-2.075417,38.102893,-5.787781
1977,1,-0.133998,0.315853,10.009178,0.021533,0.041081,-0.018021,-1.885414,38.088275,-5.656241
1977,2,-0.141775,0.348156,10.009178,0.023060,0.036346,-0.020159,-1.695411,37.752117,-5.992400
2023,1,-0.149551,0.321236,10.003195,0.021228,0.038790,-0.019090,-1.549255,38.292896,-6.650102
2023,2,-0.114257,0.344567,10.001400,0.024740,0.038790,-0.017562,-1.958492,37.985969,-5.612394
2069,1,-0.117847,0.327219,10.022338,0.022449,0.042150,-0.019395,-1.651564,38.132125,-5.612394
2069,2,-0.111266,0.336790,10.019945,0.022907,0.040317,-0.018021,-1.783104,38.088275,-5.583163
2115,1,-0.131007,0.337986,10.013963,0.025504,0.037568,-0.019242,-1.812336,37.795967,-6.343175
2115,2,-0.132203,0.315853,10.010972,0.019242,0.039706,-0.016646,-1.812336,37.971351,-5.846244
2162,1,-0.123230,0.299701,10.072588,0.026267,0.040623,-0.016493,-1.651564,37.927505,-6.489330
2162,2,-0.138784,0.345165,9.967303,0.023213,0.040012,-0.018021,-1.710026,38.059047,-6.620871
2208,1,-0.154337,0.335593,10.006785,0.020922,0.036194,-0.016952,-1.578486,38.175971,-6.065478
2208,2,-0.147757,0.330210,10.022936,0.025962,0.038485,-0.021380,-1.856182,38.029815,-5.904706
2254,1,-0.101695,0.349950,10.006785,0.025962,0.037874,-0.020922,-1.578486,37.722888,-6.094709
2254,2,-0.114257,0.340379,10.007383,0.023213,0.000611,-0.020922,-1.826951,38.117511,-5.875475
2300,1,-0.148355,0.313460,10.046266,0.025809,0.036957,-0.019090,-1.593101,37.869045,-6.401637
2300,2,-0.127418,0.334397,9.966705,0.021838,0.037568,-0.015730,-1.666180,38.161354,-6.255481
2346,1,-0.128614,0.345165,10.031910,0.020464,0.037568,-0.018937,-1.680795,38.219818,-7.190880
2346,2,-0.106481,0.382253,9.955938,0.021380,0.037263,-0.017715,-1.256942,38.146739,-6.620871
2392,1,-0.147757,0.354138,9.972687,0.020617,0.038637,-0.018326,-1.753873,38.029815,-6.825489
2392,2,-0.150150,0.339183,10.010374,0.027794,0.040317,-0.021686,-1.695411,38.044433,-6.489330
2437,1,-0.132203,0.348754,10.040284,0.027184,0.037721,-0.021991,-1.461561,37.971351,-6.197019
2437,2,-0.141177,0.327219,10.010972,0.022602,0.037110,-0.019853,-1.812336,38.117511,-6.372406
2483,1,-0.247059,0.605982,9.486346,-0.044593,0.038026,-0.008399,-1.636948,38.102893,-6.898568
2483,2,-0.571885,0.414557,9.817153,-0.069180,0.034056,-0.003360,-1.432330,37.839813,-6.693949
2529,1,-0.117847,0.161516,10.000803,0.062614,0.038943,-0.021533,-1.973107,37.825195,-6.430868
2529,2,-0.124427,0.454636,10.017552,0.057116,0.038637,-0.027336,-1.695411,38.249050,-6.503946
2575,1,-0.168694,0.327219,10.027723,0.031001,0.037415,-0.018784,-1.973107,38.205204,-6.328559
2575,2,-0.131007,0.287737,10.067802,-0.024740,0.041081,-0.013592,-1.987723,37.752117,-6.007015
2621,1,0.117248,0.485743,9.759127,-0.020617,0.037110,-0.012675,-1.432330,37.854427,-6.211634
2621,2,-0.066999,0.499502,9.626925,0.013744,0.037568,-0.024435,-1.812336,38.029815,-7.073955
2667,1,-0.146560,0.549751,9.821939,0.095295,0.037263,-0.030543,-1.753873,37.927505,-5.846244
2667,2,-0.145364,0.370888,10.102497,0.032987,0.035277,-0.021075,-2.119263,38.102893,-6.387022
2714,1,-0.132203,0.276969,10.152748,0.031612,0.077733,-0.021228,-1.856182,38.292896,-6.007015
2714,2,-0.117847,0.592224,9.552746,-0.035277,0.039401,-0.019395,-2.002338,38.161354,-6.167788
2760,1,-0.118445,0.356531,9.886546,-0.031918,0.034514,-0.008552,-2.046185,37.854427,-6.445484
2760,2,-0.241077,0.135793,10.035499,-0.061239,0.017562,-0.151495,-1.841567,37.985969,-6.503946
2806,1,-0.134596,0.428315,9.836297,0.148135,0.038485,-0.035736,-2.192341,37.927505,-6.050862
2806,2,-0.163310,0.273978,10.052249,0.138208,0.049327,0.023824,-1.534639,38.000583,-5.583163
2852,1,-0.125623,0.373879,10.051651,0.013897,0.040317,-0.014508,-1.651564,38.819061,-5.890091
2852,2,-0.001196,0.675374,9.310473,-0.090103,0.037110,-0.006872,-0.964630,38.424438,-6.313943
2898,1,-0.152542,0.264407,10.135997,-0.036194,0.037874,-0.010996,-1.651564,38.380588,-6.138556
2898,2,-0.187837,0.181855,10.012168,-0.185550,0.025351,-0.134085,-1.476176,37.839813,-5.846244
2944,1,-0.382253,0.244666,9.826127,-0.162490,0.141263,-0.270308,-1.958492,37.415962,-6.474715
2944,2,-0.114855,0.484547,10.260423,-0.167224,0.033445,-0.129503,-1.666180,37.708274,-5.393160
2991,1,-0.159123,0.409771,10.055838,-0.250607,0.039095,-0.032681,-1.958492,36.232097,-6.313943
2991,2,-0.117847,0.470788,10.040883,-0.239154,0.038637,-0.017562,-2.294651,36.495174,-6.007015
3037,1,-0.161516,0.618545,10.034302,-0.208305,0.033750,-0.023671,-2.250804,35.705932,-6.299327
3037,2,-0.156730,0.667598,10.014561,-0.121257,0.049938,-0.039095,-1.841567,36.027477,-6.255481
3083,1,-0.133998,0.752543,9.979267,-0.178678,0.061392,-0.017868,-2.338498,35.793624,-5.817012
3083,2,-0.143569,0.799801,10.016356,-0.156229,0.056200,-0.014355,-1.812336,35.428237,-6.197019
3129,1,-0.140578,0.775275,10.259826,-0.218232,0.067348,-0.007636,-2.236188,35.194389,-5.977784
3129,2,-0.135194,0.859023,10.113863,-0.132710,0.048411,-0.022907,-1.856182,34.931308,-6.401637
3175,1,-0.113061,0.946361,10.188639,-0.637743,0.046731,-0.017104,-2.484653,34.463607,-6.401637
3175,2,-0.131605,1.153341,9.754343,-0.645990,0.038637,-0.013744,-1.885414,33.659748,-5.714704
3221,1,-0.123230,1.176072,9.948760,0.038943,0.039401,-0.015424,-2.206957,32.826660,-5.393160
3221,2,-0.129811,1.191626,9.982857,0.029627,0.041081,-0.017104,-2.104648,33.031280,-5.846244
3267,1,-0.131007,1.156930,9.963714,0.029169,0.038026,-0.021380,-1.943876,32.651271,-5.627010
3267,2,-0.098704,1.174278,9.988839,0.022602,0.040164,-0.022449,-1.973107,32.972816,-5.378544
3314,1,-0.122632,1.264009,9.975678,-0.612698,0.036957,-0.022602,-1.446945,32.388191,-5.568547
3314,2,-0.119641,1.324427,9.987045,-0.390801,0.037721,-0.015272,-2.002338,31.935108,-5.466238
3360,1,-0.122034,1.442274,9.959527,-0.191201,0.038026,-0.015730,-1.607717,31.160480,-5.159310
3360,2,-0.127418,1.472184,9.686745,-0.065057,0.039706,-0.018479,-2.002338,30.912014,-5.217772
3406,1,-0.092124,1.461416,9.874582,0.037568,0.044288,-0.021380,-1.900029,31.204324,-5.817012
3406,2,-0.110668,1.465006,9.848859,0.012370,0.037415,-0.017715,-2.586963,30.634317,-5.422391
3452,1,-0.203988,1.521237,10.068998,-0.157909,0.032223,-0.037263,-2.090032,30.897399,-5.027770
3452,2,-0.108275,1.502094,9.844672,-0.171348,0.039554,-0.042761,-1.695411,30.254310,-5.305466
3498,1,-0.141775,1.514657,9.924831,-0.062461,0.040470,-0.020617,-2.250804,30.385852,-5.100848
3498,2,-0.114257,1.536192,10.044471,-0.096517,0.037110,-0.018631,-2.236188,30.093538,-5.451622
3544,1,-0.129212,1.566701,9.898509,0.020617,0.039095,-0.020159,-2.645425,29.874307,-5.597778
3544,2,-0.130409,1.569692,9.912268,0.018784,0.039401,-0.021533,-2.820812,30.049694,-4.954691
3590,1,-0.115454,1.567897,9.929018,0.023824,0.038026,-0.018326,-2.353113,29.888921,-4.472376
3590,2,-0.113659,1.564308,9.918848,0.016952,0.038332,-0.021380,-2.440807,29.947385,-5.451622
3636,1,-0.128016,1.587040,9.890733,-0.027947,0.038637,-0.023518,-2.104648,30.415081,-4.925460
3636,2,-0.116650,1.596611,9.914062,-0.035430,0.040623,-0.022449,-2.426191,29.801229,-5.071617
3682,1,-0.154935,1.569692,9.936795,-0.004581,0.038332,-0.037415,-2.309266,30.385852,-4.866998
3682,2,-0.123829,1.593022,9.929018,-0.063835,0.028711,-0.063530,-2.513885,30.707395,-4.969307
3728,1,-0.122632,1.647458,9.847064,-0.091630,0.035277,-0.036805,-2.543116,30.035078,-4.881614
3728,2,-0.110668,1.639682,9.913465,-0.049786,0.038790,-0.030849,-2.426191,30.356620,-4.706226
3774,1,-0.126221,1.686940,9.890134,-0.064141,0.035888,-0.026878,-2.192341,29.815843,-5.188541
3774,2,-0.133998,1.666601,9.899706,-0.061087,0.038026,-0.034361,-2.353113,29.391992,-5.188541
3820,1,-0.114855,1.699502,9.893725,-0.035736,0.032376,-0.047647,-2.221573,29.508914,-4.881614
3820,2,-0.099900,1.726421,9.885350,-0.024893,0.031154,-0.064752,-2.660041,29.713535,-5.349313
3867,1,-0.089731,1.759921,9.954740,-0.105527,0.044440,-0.036346,-2.513885,29.655071,-4.340836
3867,2,-0.125025,1.783251,9.884751,-0.183412,0.037721,-0.038637,-2.806197,29.728149,-4.238527
3913,1,-0.106481,1.788037,9.866207,-0.041844,0.036652,-0.024740,-3.113125,28.748903,-4.837767
3913,2,-0.132203,1.805385,9.914062,-0.035430,0.038790,-0.022449,-3.346974,29.055830,-4.413914
3959,1,-0.090329,1.932802,9.827921,-0.673326,0.032529,-0.078038,-3.069278,28.310436,-4.033908
3959,2,-0.119043,2.049453,9.664611,-0.454484,0.036041,-0.060934,-2.499269,27.959659,-4.063139
4005,1,-0.122034,2.054836,9.829117,-0.025809,0.035125,-0.021228,-2.455422,27.155801,-3.931599
4005,2,-0.123829,2.053042,9.829117,-0.012217,0.036041,-0.023213,-2.367729,27.345806,-3.960830
4051,1,-0.112463,2.069792,9.848260,-0.036041,0.037568,-0.024587,-2.484653,27.448114,-3.858521
4051,2,-0.105284,2.091925,9.826127,-0.049480,0.036957,-0.020617,-2.616194,27.565038,-3.741596
4097,1,-0.111864,2.081756,9.895519,-0.136834,0.038179,-0.032070,-2.484653,27.068107,-4.092370
4097,2,-0.117847,2.144567,9.893126,-0.282678,0.032529,-0.036346,-2.338498,26.790412,-3.522362
4143,1,-0.094516,2.268396,9.759726,-0.166155,0.034361,-0.040470,-2.850044,26.147327,-3.668518
4143,2,-0.102293,2.264209,9.795021,-0.143553,0.036041,-0.038332,-2.733119,25.855012,-3.420053
4189,1,-0.126820,2.323431,9.795021,-0.386678,0.035125,-0.042761,-2.586963,25.518856,-2.952353
4189,2,-0.113659,2.387439,9.831510,-0.498466,0.029474,-0.069639,-2.747735,25.328849,-2.806197
4235,1,-0.101695,2.562713,9.604790,-0.245568,0.032223,-0.047495,-2.776966,23.648056,-3.361590
4235,2,-0.115454,2.581258,9.656236,-0.128893,0.034208,-0.032987,-2.674657,24.013446,-2.367729
4281,1,-0.121436,2.559124,9.698111,-0.020159,0.032987,-0.024893,-2.981584,23.867290,-2.674657
4281,2,-0.105882,2.590829,9.693923,-0.017104,0.037415,-0.025504,-2.747735,23.706518,-2.148495
4327,1,-0.107677,2.635096,9.697513,-0.008858,0.036346,-0.025504,-2.484653,23.545745,-3.215434
4327,2,-0.121436,2.620141,9.681361,-0.003512,0.038943,-0.025656,-2.367729,23.516515,-2.981584
4373,1,-0.096909,2.617748,9.736994,-0.091630,0.036346,-0.041081,-2.426191,23.764982,-2.250804
4373,2,-0.105882,2.658426,9.691530,-0.138056,0.032834,-0.051771,-2.820812,23.282667,-2.660041
4419,1,-0.113659,2.672783,9.649058,-0.076358,0.034667,-0.036194,-2.747735,23.355743,-2.747735
4419,2,-0.122632,2.717050,9.527024,-0.046426,0.033139,-0.031918,-2.747735,23.209589,-2.557732
4466,1,-0.113659,2.709872,9.660424,0.010537,0.032223,-0.021991,-2.396960,22.961122,-2.499269
4466,2,-0.102293,2.727818,9.665210,0.010232,0.038790,-0.027489,-2.177726,22.829582,-2.703888
4512,1,-0.132203,2.718246,9.694521,-0.030543,0.031001,-0.034208,-2.820812,23.078046,-2.163110
4512,2,-0.143569,2.734398,9.726824,-0.082772,0.035736,-0.039248,-2.645425,23.004970,-2.206957
4558,1,-0.093320,2.866003,9.580265,-0.326660,0.025351,-0.083536,-2.762350,22.347267,-1.753873
4558,2,-0.100499,2.865405,9.574881,-0.242208,0.027184,-0.056658,-2.864659,22.259572,-2.323882
4604,1,-0.089133,2.944368,9.612567,-0.173028,0.029932,-0.038485,-2.835428,21.821105,-2.367729
4604,2,-0.124427,2.967100,9.530613,-0.151647,0.031001,-0.040164,-2.879275,21.002630,-1.958492
4650,1,-0.114257,2.987439,9.567702,-0.016341,0.036652,-0.029016,-2.864659,21.119556,-1.344636
4650,2,-0.100499,2.982653,9.604790,-0.002596,0.035277,-0.026878,-3.317743,21.061092,-2.309266
4696,1,-0.118445,2.980261,9.591630,0.002291,0.038637,-0.022907,-3.215434,21.134170,-2.411576
4696,2,-0.107079,3.019742,9.585050,-0.012217,0.038943,-0.023976,-2.966969,20.914937,-2.601578
4742,1,-0.112463,3.016752,9.583853,-0.034667,0.040623,-0.028711,-2.850044,21.499561,-2.630810
4742,2,-0.098106,3.020939,9.537792,-0.035430,0.036805,-0.028253,-2.791581,21.324174,-3.010816
4788,1,-0.136989,3.017948,9.571889,-0.006261,0.042913,-0.025809,-2.484653,21.236480,-2.104648
4788,2,-0.111266,3.040081,9.579667,-0.020006,0.041081,-0.030543,-3.156971,20.958784,-2.923122
4834,1,-0.132203,3.062813,9.549756,-0.061850,0.033139,-0.036194,-2.908506,21.002630,-1.344636
4834,2,-0.116052,3.071188,9.546765,-0.051771,0.032987,-0.037568,-2.864659,21.061092,-2.280035
4880,1,-0.114855,3.088536,9.577273,-0.001222,0.036499,-0.028253,-2.660041,20.695703,-2.850044
4880,2,-0.129212,3.077170,9.557532,-0.008705,0.039706,-0.028405,-2.338498,20.827243,-2.718503
4926,1,-0.111266,3.095715,9.537194,-0.042302,0.035125,-0.034819,-2.630810,20.783395,-1.812336
4926,2,-0.109472,3.110071,9.570095,-0.031612,0.039554,-0.032223,-2.893891,20.593395,-1.417714
4972,1,-0.117847,3.129812,9.576675,-0.020617,0.038179,-0.028863,-2.660041,20.330312,-2.586963
4972,2,-0.108873,3.118446,9.547363,-0.034667,0.036805,-0.029016,-2.879275,20.403390,-2.250804
5019,1,-0.112463,3.154339,9.533006,-0.058490,0.034972,-0.029627,-2.470038,20.695703,-2.850044
5019,2,-0.107079,3.161517,9.507283,-0.067959,0.035277,-0.027794,-2.703888,20.520315,-2.703888
5065,1,-0.101695,3.219543,9.505489,-0.071624,0.031154,-0.032376,-2.893891,19.818765,-2.133879
5065,2,-0.127418,3.221338,9.467802,-0.028405,0.035583,-0.030849,-2.353113,19.643379,-2.163110
5111,1,-0.126221,3.206382,9.497712,0.028863,0.039095,-0.026573,-2.396960,20.081848,-2.893891
5111,2,-0.107677,3.207579,9.527622,0.021838,0.035888,-0.025351,-2.060801,20.111078,-2.090032
5157,1,-0.115454,3.239284,9.495918,-0.003818,0.037415,-0.026114,-2.382344,19.862613,-2.148495
5157,2,-0.126820,3.225525,9.498310,-0.005040,0.038485,-0.025962,-1.958492,19.511838,-2.382344
5203,1,-0.124427,3.232105,9.524033,0.016646,0.040317,-0.024282,-2.323882,20.081848,-0.906168
5203,2,-0.102891,3.216552,9.513265,0.019853,0.038179,-0.022297,-2.426191,19.804151,-1.622333
5249,1,-0.112463,3.229712,9.498908,0.003818,0.040164,-0.022449,-2.192341,19.526454,-1.359252
5249,2,-0.105284,3.250051,9.495319,0.009316,0.040775,-0.026114,-2.075417,19.248758,-1.169249
5294,1,-0.110668,3.247060,9.515060,0.012217,0.075289,-0.025351,-2.411576,19.833381,-1.710026
5294,2,-0.108873,3.259024,9.493525,0.004734,0.040623,-0.025351,-2.952353,19.570301,-2.002338
5340,1,-0.126820,3.272185,9.480962,0.006261,0.036805,-0.027031,-1.987723,19.833381,-1.607717
5340,2,-0.132203,3.260221,9.518649,0.017104,0.036499,-0.021838,-2.265419,19.935691,-1.183864
5386,1,-0.101695,3.255435,9.500702,0.014355,0.038026,-0.024129,-2.864659,19.453376,-1.227711
5386,2,-0.119043,3.248855,9.507881,0.010537,0.037568,-0.023366,-3.025431,19.102602,-2.177726
5432,1,-0.116052,3.257828,9.516855,-0.071471,0.034819,-0.041386,-2.776966,19.555685,-1.578486
5432,2,-0.129212,3.299104,9.451650,-0.064904,0.032987,-0.040317,-2.674657,19.351066,-1.096171
5478,1,-0.109472,3.286542,9.450454,-0.007789,0.036652,-0.030696,-2.513885,19.219526,-1.534639
5478,2,-0.098106,3.305684,9.463614,0.009927,0.036805,-0.025809,-2.221573,19.204912,-1.081555
5524,1,-0.128614,3.293122,9.486346,0.025809,0.036957,-0.021228,-2.367729,18.883367,-1.680795
5524,2,-0.102891,3.296113,9.467802,0.021075,0.033903,-0.024282,-2.440807,19.292604,-1.300789
5570,1,-0.125025,3.308675,9.458827,0.018021,0.041692,-0.023060,-2.499269,19.087985,-2.221573
5570,2,-0.092722,3.303292,9.484552,0.016188,0.041081,-0.025351,-2.499269,18.985675,-2.119263
5617,1,-0.111266,3.302095,9.457632,0.023518,0.035583,-0.024893,-2.440807,19.117216,-1.154633
5617,2,-0.122632,3.291926,9.460024,0.023976,0.040470,-0.024435,-2.981584,18.634901,-1.724642
5663,1,-0.117248,3.314658,9.495918,0.022449,0.038637,-0.019700,-3.025431,18.927213,-1.052324
5663,2,-0.111266,3.327818,9.474980,0.017257,0.037874,-0.023976,-2.543116,18.971061,-1.841567
5709,1,-0.121436,3.300301,9.483355,0.016035,0.041539,-0.022144,-2.733119,19.000291,-1.856182
5709,2,-0.101695,3.306881,9.458230,0.011759,0.035888,-0.028100,-2.572347,19.044137,-0.672318
5755,1,-0.110070,3.311069,9.489337,0.017562,0.038026,-0.024587,-2.133879,19.277988,-1.841567
5755,2,-0.093918,3.294917,9.464212,0.017868,0.037110,-0.025962,-2.309266,19.467990,-1.943876
5801,1,-0.117847,3.313461,9.610773,0.017257,0.039859,-0.024587,-2.513885,19.307220,-1.037708
5801,2,-0.109472,3.323631,9.498908,0.019700,0.037568,-0.024435,-2.309266,19.029523,-1.695411
5847,1,-0.122034,3.338586,9.470792,0.023824,0.038790,-0.024282,-3.346974,19.219526,-0.453084
5847,2,-0.107677,3.345166,9.493525,0.021838,0.036805,-0.024740,-2.513885,19.029523,-1.213096
5893,1,-0.134596,3.318247,9.448061,0.020922,0.041997,-0.022907,-3.054662,18.649517,-0.774627
5893,2,-0.134596,3.306881,9.474980,0.021228,0.039095,-0.022449,-3.332359,19.117216,-0.467700
5939,1,-0.116052,3.320640,9.461819,0.025504,0.036805,-0.023213,-2.586963,19.161064,-1.096171
5939,2,-0.110668,3.309872,9.470194,0.021075,0.037721,-0.024587,-2.820812,18.971061,-2.060801
5985,1,-0.138186,3.300301,9.488739,0.015730,0.037874,-0.020769,-2.806197,19.102602,-0.979246
5985,2,-0.131007,3.309872,9.461221,0.017868,0.037263,-0.023976,-2.923122,18.971061,-0.803858
6031,1,-0.113659,3.303890,9.460623,0.013592,0.039248,-0.022907,-2.499269,19.175680,-1.607717
6031,2,-0.119641,3.337389,9.484552,0.026725,0.041386,-0.023366,-2.923122,19.146448,-1.213096
6077,1,-0.147757,3.318845,9.467802,0.020159,0.035736,-0.024282,-2.382344,19.365682,-1.330020
6077,2,-0.087936,3.304488,9.450454,0.022755,0.038179,-0.023213,-2.426191,19.380298,-1.227711
6122,1,-0.110070,3.304488,9.461221,0.022755,0.033598,-0.025045,-2.703888,19.102602,-1.300789
6122,2,-0.129811,3.315256,9.469596,0.021380,0.035583,-0.025351,-2.484653,19.424144,-1.271558
6168,1,-0.110070,3.309274,9.451650,0.016341,0.040164,-0.025198,-2.791581,19.117216,-1.812336
6168,2,-0.127418,3.325425,9.486944,0.018173,0.037874,-0.022449,-2.470038,19.277988,-0.891552
6215,1,-0.107677,3.342773,9.467802,0.016799,0.037874,-0.019853,-2.572347,19.482608,-1.066940
6215,2,-0.086142,3.332604,9.483953,0.013134,0.039248,-0.023060,-2.470038,19.161064,-1.461561
6261,1,-0.116052,3.319443,9.460024,0.016646,0.041539,-0.024740,-2.601578,19.760305,-1.388483
6261,2,-0.127418,3.326622,9.476177,0.014813,0.039554,-0.024282,-2.470038,19.351066,-1.885414
6307,1,-0.111266,3.322434,9.450454,0.010996,0.033750,-0.021686,-2.718503,19.000291,-1.695411
6307,2,-0.100499,3.346961,9.457034,0.009010,0.038637,-0.025656,-2.908506,19.234142,-0.847705
6353,1,-0.129811,3.324827,9.454641,0.008094,0.036194,-0.026573,-2.499269,19.248758,-0.657702
6353,2,-0.122632,3.351148,9.454641,0.015272,0.038332,-0.023671,-1.900029,19.044137,-1.388483
6399,1,-0.118445,3.372085,9.450454,0.022449,0.036194,-0.024893,-2.674657,19.087985,-0.643087
6399,2,-0.098106,3.356532,9.470792,0.017715,0.039248,-0.021533,-2.528500,18.897983,-1.140017
6445,1,-0.126820,3.347559,9.451052,0.016799,0.036041,-0.027489,-3.040047,18.707981,-1.534639
6445,2,-0.126221,3.314658,9.427124,0.014966,0.038637,-0.024893,-2.864659,18.985675,-1.490792
6491,1,-0.093918,3.351746,9.456436,0.020617,0.036346,-0.021838,-2.689272,18.576440,-1.870798
6491,2,-0.108275,3.337389,9.437293,0.023671,0.039554,-0.020769,-2.323882,18.795673,-1.856182
6537,1,-0.108275,3.343371,9.460024,0.022297,0.039095,-0.026878,-2.601578,18.781059,-1.330020
6537,2,-0.138784,3.326023,9.454043,0.021380,0.037721,-0.023976,-2.543116,18.971061,-1.081555
6583,1,-0.102293,3.330809,9.459426,0.020311,0.036805,-0.027336,-2.850044,18.722595,-1.490792
6583,2,-0.107079,3.339184,9.473784,0.019548,0.035888,-0.025045,-2.835428,18.883367,-1.140017
6629,1,-0.117847,3.340380,9.460623,0.021380,0.038485,-0.020617,-2.309266,19.804151,-1.023093
6629,2,-0.120838,3.327220,9.455240,0.018784,0.038332,-0.018937,-2.426191,19.058755,-1.066940
6675,1,-0.129212,3.345166,9.432508,0.021686,0.039859,-0.023976,-2.367729,18.591054,-1.446945
6675,2,-0.130409,3.364309,9.472587,0.018021,0.037110,-0.023366,-2.513885,18.971061,-1.593101
6721,1,-0.122034,3.353541,9.469596,0.014966,0.036805,-0.024129,-2.557732,19.424144,-1.140017
6721,2,-0.104088,3.329613,9.467802,0.018021,0.040317,-0.020311,-2.104648,19.000291,-1.578486
6768,1,-0.092722,3.342175,9.456436,0.009163,0.035430,-0.023976,-2.850044,19.248758,-1.607717
6768,2,-0.110668,3.351746,9.469596,0.017715,0.040012,-0.021686,-2.762350,19.190294,-1.636948
6814,1,-0.116650,3.364309,9.468998,0.015730,0.034819,-0.020311,-2.104648,19.161064,-1.344636
6814,2,-0.087338,3.350550,9.442677,0.020464,0.037874,-0.023213,-2.528500,19.190294,-1.344636
6859,1,-0.102891,3.364309,9.455240,0.020311,0.039706,-0.022144,-2.353113,19.438760,-0.453084
6859,2,-0.103490,3.357130,9.451052,0.014813,0.037110,-0.028711,-2.470038,19.000291,-1.198480
6905,1,-0.105882,3.347559,9.429516,0.017257,0.036041,-0.021380,-2.601578,18.781059,-1.154633
6905,2,-0.108275,3.354737,9.437293,0.020464,0.040623,-0.023060,-2.543116,18.941829,-0.803858
6951,1,-0.116052,3.360121,9.455240,0.018937,0.037415,-0.022449,-2.981584,18.912597,-1.096171
6951,2,-0.133400,3.358327,9.428320,0.013439,0.038332,-0.023213,-2.484653,18.591054,-0.760012
6997,1,-0.120838,3.376871,9.419346,0.011301,0.036499,-0.025351,-1.914645,18.722595,-0.862321
6997,2,-0.116650,3.349354,9.466605,0.021686,0.041386,-0.024282,-2.016954,19.131834,-1.140017
7043,1,-0.119043,3.354737,9.454043,0.022297,0.042302,-0.021533,-2.426191,18.927213,-0.380006
7043,2,-0.127418,3.369693,9.423534,0.023824,0.037110,-0.022449,-2.148495,18.766441,-1.213096
7089,1,-0.113659,3.521038,9.443275,0.027031,0.041233,-0.023060,-2.499269,19.029523,-1.344636
7089,2,-0.119641,3.229114,9.458827,0.031918,0.040928,-0.024893,-2.776966,19.058755,-1.008477
7135,1,-0.114855,3.346961,9.461221,0.019700,0.034972,-0.021991,-2.119263,19.190294,-1.271558
7135,2,-0.103490,3.367898,9.451650,0.012065,0.039706,-0.022602,-2.323882,19.087985,-1.052324
7181,1,-0.142971,3.369094,9.439087,0.020464,0.038332,-0.025809,-2.280035,18.912597,-1.373867
7181,2,-0.107677,3.361916,9.463614,0.024740,0.038332,-0.023060,-2.236188,18.707981,-1.359252
7227,1,-0.120838,3.390630,9.446865,0.025809,0.038943,-0.022907,-1.987723,18.810289,-1.914645
7227,2,-0.129811,3.352943,9.455240,0.025045,0.036652,-0.020769,-2.206957,18.547208,-1.330020
7273,1,-0.114257,3.367898,9.470194,0.016188,0.039401,-0.024435,-2.630810,18.605670,-2.148495
7273,2,-0.122034,3.378067,9.420543,0.016493,0.039859,-0.024740,-2.557732,18.108739,-2.353113
7319,1,-0.113061,3.373880,9.434901,0.023366,0.040164,-0.023518,-2.966969,18.240280,-1.271558
7319,2,-0.101097,3.355934,9.449855,0.030543,0.036652,-0.022144,-2.689272,18.561822,-1.256942
7366,1,-0.111864,3.378666,9.476177,0.032223,0.038637,-0.028100,-2.572347,18.751827,-1.505408
7366,2,-0.136391,3.369693,9.437293,0.029780,0.041233,-0.019853,-2.528500,18.649517,-1.213096
7412,1,-0.116052,3.345764,9.437293,0.038332,0.039095,-0.024129,-2.470038,18.678749,-1.169249
7412,2,-0.113659,3.335595,9.449855,0.047953,0.038179,-0.020464,-2.645425,18.707981,-0.993861
7458,1,-0.123829,3.344568,9.440882,0.080329,0.038179,-0.008094,-2.689272,18.678749,-2.192341
7458,2,-0.183051,3.361318,9.378669,0.147219,0.049786,0.005345,-2.455422,18.941829,-2.265419
7504,1,-0.102293,3.102893,9.430713,1.309084,0.120188,0.312305,-2.177726,20.330312,-2.119263
7504,2,-0.167498,2.835495,9.616157,1.385137,0.124006,0.329715,-2.747735,21.382637,-2.002338
7549,1,-1.557129,5.449055,13.217952,1.419193,-0.112094,0.360869,-2.002338,23.852674,-3.536978
7549,2,-0.007777,2.111666,9.619747,2.057852,0.073609,0.088423,-1.885414,25.226541,-3.390821
7595,1,-0.245264,1.471586,9.746565,1.947744,-0.038485,0.056505,-1.870798,30.049694,-4.910845
7595,2,-0.148355,1.192224,10.441679,1.844049,-0.047189,-0.040470,-2.148495,31.511253,-4.910845
7642,1,-0.095115,1.238286,9.961321,0.101862,0.036041,-0.011912,-2.250804,33.528209,-4.676995
7642,2,-0.163908,1.127020,9.949357,0.101404,0.046120,0.057116,-2.046185,33.747444,-5.188541
7687,1,-0.180658,1.100698,9.937393,0.151953,0.045662,0.057727,-2.133879,33.747444,-5.290851
7687,2,-0.151944,1.079163,9.925429,0.229685,0.035888,-0.001527,-2.426191,33.820518,-5.466238
7733,1,-0.166301,0.817747,10.030713,0.275195,0.013439,-0.089339,-2.411576,34.712074,-4.603917
7733,2,-0.121436,0.903889,10.051651,0.324828,0.014966,-0.139125,-2.893891,34.507453,-5.305466
7779,1,-0.205783,0.839881,9.960722,0.463494,0.043677,-0.277180,-2.645425,34.989768,-5.217772
7779,2,-0.105284,0.730409,10.062418,0.459523,0.072540,-0.231671,-2.966969,35.472084,-5.407775
7826,1,0.014955,1.007378,9.708280,0.614378,0.079260,-0.016646,-2.265419,36.232097,-5.612394
7826,2,-0.041874,0.350549,9.809377,1.016632,0.116064,0.183260,-2.411576,36.729026,-5.787781
7871,1,-0.022732,0.419940,9.618550,0.730748,0.071319,-0.233961,-1.724642,39.579071,-5.700088
7871,2,-0.103490,-0.016750,10.642677,0.930806,-0.092393,-0.238543,-1.534639,40.149078,-5.977784
7917,1,-0.166899,-0.162712,9.888938,0.281151,0.048106,-0.136834,-1.490792,40.543701,-6.503946
7917,2,-0.265603,-0.566501,9.371490,0.019090,0.224493,-0.094990,-2.543116,41.537563,-6.533177
7964,1,-0.105284,-0.105284,10.013365,0.018173,0.039095,-0.094837,-2.499269,41.990646,-6.109325
7964,2,-0.103490,-0.112463,9.998410,0.021228,0.041386,-0.027947,-2.309266,41.259868,-5.860859
8010,1,-0.119641,-0.147159,10.037892,0.019242,0.038179,-0.020006,-2.484653,41.011398,-6.109325
8010,2,-0.129811,-0.143569,10.039088,0.016188,0.040317,-0.023213,-2.104648,40.938320,-6.533177
8057,1,-0.114855,-0.163310,10.016955,0.012523,0.047037,0.076816,-1.622333,41.069862,-5.904706
8057,2,-0.102891,-0.131605,10.010972,0.010232,0.045662,0.063072,-1.710026,40.616779,-6.635486
8103,1,-0.073579,-0.061017,9.955339,0.017410,0.040317,0.014661,-1.373867,40.777549,-6.211634
8103,2,-0.133998,-0.110070,10.019945,0.023366,0.040928,0.006567,-1.593101,40.748317,-6.693949
8149,1,-0.083749,-0.118445,10.015757,0.025962,0.041844,-0.017257,-1.841567,40.719089,-6.708565
8149,2,-0.084945,-0.123230,10.025927,0.020769,0.039401,-0.011148,-2.367729,40.792167,-6.620871
8195,1,-0.092722,-0.131007,10.022338,0.023518,0.038637,-0.018021,-1.783104,41.069862,-5.597778
8195,2,-0.113659,-0.113659,10.039686,0.027184,0.001680,-0.018173,-1.710026,41.011398,-6.036247
8241,1,-0.078963,-0.116052,10.039686,0.027184,0.041539,-0.012370,-1.636948,41.069862,-5.802397
8241,2,-0.089133,-0.107677,10.013963,0.016493,0.039554,-0.006720,-2.221573,41.099090,-6.123940
8287,1,0.358325,-0.306880,10.551152,-0.451582,0.028100,0.270308,-1.183864,40.865245,-6.401637
8287,2,-0.119043,-0.183649,10.500305,-1.785101,-0.038026,0.520610,-1.549255,40.061386,-6.270096
8333,1,-0.110668,0.652642,10.022936,-0.505644,0.031001,0.000000,-1.505408,36.816719,-5.685472
8333,2,-0.125623,0.750748,10.098908,-0.717919,0.027489,0.053451,-1.607717,36.582870,-5.320082
8379,1,0.124427,0.384048,10.000803,1.564731,0.078496,-0.138972,-1.666180,36.188247,-6.606256
8379,2,-0.196211,0.762712,9.587443,-0.155618,0.035430,0.000000,-1.680795,37.065185,-6.007015
8425,1,-0.097508,0.568894,10.021739,-0.122937,0.036346,-0.012523,-1.753873,36.992107,-6.007015
8425,2,-0.114257,0.448654,10.387244,-0.329867,0.029016,-0.026573,-1.826951,36.758258,-5.948553
8471,1,-0.147159,1.003191,9.952947,-2.272877,-0.016646,0.007483,-1.900029,33.221279,-6.240865
8471,2,-0.114855,1.349552,10.090533,-2.134363,-0.013134,0.008247,-2.060801,31.715873,-5.407775
8518,1,-0.133400,2.024328,9.614362,-0.913244,-0.009316,-0.227700,-2.236188,28.003507,-4.662379
8518,2,-0.229113,1.973480,9.916456,-0.798401,-0.016035,-0.231365,-2.411576,27.535808,-4.238527
8564,1,-0.283549,2.273181,10.218549,-1.689500,0.137292,-0.416610,-2.294651,24.627302,-4.545454
8564,2,-0.308674,2.764308,10.083952,-1.055575,0.044593,-0.119730,-2.016954,23.107278,-3.522362
8610,1,-0.117847,2.843272,9.686745,-0.430507,-0.002902,-0.087048,-2.411576,22.113416,-3.346974
8610,2,-0.089731,2.919842,9.548559,-0.297186,-0.005192,-0.076816,-2.586963,21.455713,-2.455422
8656,1,-0.068794,3.103491,9.270992,-0.333074,-0.004581,-0.080176,-2.791581,20.944168,-2.192341
8656,2,-0.105284,3.106482,9.558131,-0.245568,0.021075,-0.055741,-2.601578,20.929552,-2.163110
8702,1,-0.123230,3.218346,9.415758,-0.190895,0.022907,-0.056963,-2.513885,19.964923,-1.797720
8702,2,-0.124427,3.211766,9.454043,-0.063988,0.033750,-0.035736,-3.054662,20.052616,-1.826951
8748,1,-0.116650,3.184249,9.667004,-0.172417,0.025656,-0.046731,-2.586963,19.453376,-1.783104
8748,2,-0.206381,3.185445,9.814762,-0.486096,0.004887,-0.125075,-2.601578,20.008769,-2.206957
8794,1,-0.028116,3.655036,8.849256,-1.355663,-0.070708,-0.312305,-2.557732,17.334112,-0.102309
8794,2,0.072981,3.863212,8.822338,-0.682184,-0.038790,-0.204334,-2.163110,16.515640,-0.306928
8840,1,-0.119641,3.836891,9.380463,-0.266185,0.019395,-0.062003,-2.177726,15.726397,0.277697
8840,2,-0.206979,3.844668,9.439686,-0.494801,-0.019395,-0.152411,-1.651564,15.185619,0.950015
8886,1,-0.114257,4.022933,9.144771,-0.025962,0.034208,-0.027642,-1.929260,14.104064,0.365390
8886,2,-0.144766,4.008576,9.215957,-0.014203,0.036346,-0.020311,-1.973107,14.045601,0.730780
8932,1,-0.110070,4.063611,9.226725,-0.109345,0.032223,-0.041081,-2.090032,14.235604,-0.146156
8932,2,-0.114257,4.085146,9.142377,-0.150120,0.018173,-0.067959,-1.929260,13.914061,0.584624
8978,1,-0.108873,4.062415,9.152546,0.060170,0.033750,-0.025809,-1.753873,13.782520,1.344636
8978,2,-0.119043,4.066602,9.119646,0.096364,0.032834,-0.027336,-2.309266,13.577901,0.745396
9024,1,-0.227318,3.949952,8.252247,1.551903,0.046884,0.107512,-2.484653,14.410991,-0.394621
9024,2,-0.008973,3.696313,8.413165,4.001931,0.081245,0.192575,-2.046185,16.501022,-1.008477
9071,1,-0.368495,2.607578,11.855241,4.572479,0.096822,-0.074067,-2.309266,27.521192,-3.916983
9071,2,-0.017946,1.194617,9.265009,4.352568,-0.214108,0.226173,-2.835428,31.598945,-4.004677
9117,1,-0.433101,0.175872,10.066008,0.138666,0.049938,0.132405,-2.791581,36.670566,-5.553932
9117,2,-0.546760,0.641276,9.377472,0.172569,0.042302,-0.054825,-3.069278,36.889797,-5.173926
9163,1,-0.190229,0.507278,9.992428,0.070097,0.044288,-0.016035,-3.259281,36.641330,-5.057001
9163,2,-0.139980,0.738186,9.945170,0.074678,0.047495,0.069180,-3.303128,36.802104,-5.320082
9209,1,-0.064606,0.708874,10.050454,-0.013592,0.044899,0.081703,-3.259281,36.919029,-5.685472
9209,2,-0.139980,0.580259,10.050454,-0.015272,0.049022,0.206472,-3.800058,36.787490,-5.524701
9255,1,-0.330210,0.440878,10.546964,-0.578948,0.038637,0.077122,-2.601578,36.012859,-5.334697
9255,2,-0.231506,0.338584,10.884352,-2.570674,0.053909,0.016952,-2.776966,34.858230,-5.787781
9301,1,-0.728614,2.369493,9.836297,-3.570507,-0.026420,-0.506865,-2.660041,27.214263,-4.384683
9301,2,-0.224925,2.586641,10.113863,-4.068210,-0.053603,-0.542143,-2.879275,24.086524,-3.756212
9347,1,0.091525,3.660420,8.594421,-1.587486,0.104305,-0.117286,-1.812336,15.711780,-0.716165
9347,2,-0.133400,3.887738,9.017951,-0.274278,0.030238,-0.055283,-1.856182,14.542532,-1.023093
9393,1,-0.115454,3.880560,9.230913,-0.070097,0.030696,-0.053145,-2.294651,14.674073,-0.482315
9393,2,-0.103490,3.857828,9.228519,0.020617,0.035888,-0.029780,-2.762350,14.878691,-0.292312
9439,1,-0.117847,3.851248,9.235100,0.015272,0.037415,-0.027642,-2.016954,14.586380,-0.672318
9439,2,-0.108873,3.869792,9.229118,0.034514,0.038026,-0.025198,-2.163110,14.717919,-0.219234
9485,1,0.011366,4.104887,7.141379,0.995558,-0.010232,-0.197615,-2.484653,14.820229,-0.686934
9485,2,-0.113061,3.260819,8.160123,5.003139,0.067195,0.098655,-2.119263,16.311019,-2.280035
9531,1,1.181456,0.096909,8.775677,5.003444,-0.521832,0.030085,-3.083894,33.411281,-4.823151
9531,2,-0.898505,0.287139,11.575878,-0.144928,0.038179,-0.114232,-3.361590,36.743640,-5.714704
9577,1,-0.226720,0.603590,9.981062,0.313221,0.056658,0.211054,-3.054662,37.021339,-5.685472
9577,2,-0.747159,-0.891925,10.211970,0.812909,0.132710,1.273807,-2.440807,37.591346,-5.276235
9623,1,-0.396610,-0.943968,10.262218,0.279929,0.068570,0.009163,-2.513885,38.073661,-5.992400
9623,2,-0.143569,0.159123,10.056437,0.125686,0.037110,-0.061392,-1.943876,38.702133,-5.817012
9670,1,0.142373,-0.142971,10.271191,0.059407,0.034819,-0.089644,-2.572347,38.585208,-5.510085
9670,2,-0.114257,0.245264,9.981062,-0.044440,0.011759,-0.105069,-2.309266,38.775211,-5.758550
9716,1,-0.887737,1.137787,10.829318,-2.417652,-0.006261,0.088728,-2.689272,35.954399,-5.977784
9716,2,-0.065803,0.940977,10.841879,-4.726723,-0.085979,-0.140194,-2.952353,32.914352,-5.524701
9762,1,-0.857827,2.612962,9.277572,-3.400076,0.267559,-0.611476,-2.367729,21.148786,-2.630810
9762,2,-0.058624,3.690330,8.885747,-2.909246,0.096669,-1.048856,-1.549255,18.444898,-1.183864
9808,1,0.166899,4.040879,9.030513,0.079718,-0.034819,-0.257480,-2.046185,15.609472,-0.803858
9808,2,-0.186042,3.601198,9.348160,0.079871,0.034819,-0.030849,-2.031570,15.711780,-1.256942
9854,1,0.013759,3.823731,9.224930,0.154396,0.075747,0.124158,-1.739258,16.720256,-0.686934
9854,2,-0.084945,3.595814,9.011370,0.807106,0.099266,0.241750,-1.870798,16.661794,-1.432330
9900,1,-0.265603,2.953940,9.382857,1.939039,0.123089,0.329867,-2.016954,19.175680,-2.250804
9900,2,-0.144766,2.860021,8.075179,3.343418,0.089339,0.155313,-1.680795,20.622625,-3.376206
9946,1,0.725025,0.485743,14.259428,5.003444,-0.392634,-0.274278,-2.426191,34.317451,-5.656241
9946,2,-0.399601,0.369093,8.992228,-0.313985,0.035430,0.163101,-3.376206,37.313652,-5.466238
9992,1,-0.160917,0.378066,10.001400,0.113315,0.048106,0.019242,-2.557732,37.240573,-5.670856
9992,2,-0.192622,0.501296,9.988839,0.113468,0.047647,0.020159,-2.776966,37.591346,-5.758550
10038,1,-0.186640,0.348156,10.021142,0.090713,0.040164,-0.036652,-2.630810,38.044433,-5.714704
10038,2,-0.160319,0.354138,10.007981,0.068722,0.041233,-0.042455,-2.689272,37.576732,-4.823151
10084,1,0.008973,-0.598804,10.984851,-0.945314,-0.009621,0.172875,-2.923122,37.386730,-5.627010
10084,2,-0.617348,0.527617,10.816158,-1.958587,0.030543,0.076205,-2.382344,35.983631,-5.553932
10130,1,-0.857827,2.696113,9.885350,-5.004208,-0.038790,-0.308029,-2.323882,24.758842,-2.499269
10130,2,1.273580,2.086541,10.885548,-5.004208,0.498619,-0.483042,-2.221573,18.591054,-1.432330
10176,1,-0.233898,3.750750,9.646665,-0.329867,-0.002596,-0.124158,-1.227711,14.995615,-0.190003
10176,2,0.005982,3.972684,8.855837,-0.338878,-0.007330,-0.153480,-2.046185,14.703304,-0.292312
10223,1,-0.142971,3.884747,9.242876,0.101862,0.038485,-0.028253,-1.330020,14.600995,-0.540777
10223,2,-0.130409,3.864408,9.278170,0.100182,0.035430,-0.033598,-1.900029,14.907922,-0.219234
10269,1,-0.236291,4.055835,7.945368,0.715476,0.007789,-0.152716,-2.031570,14.600995,-0.496931
10269,2,0.005982,3.570690,7.206583,4.441601,0.064752,0.102778,-2.046185,16.997953,-1.593101
10315,1,-1.676172,2.855834,14.707485,5.003444,-0.512058,0.376598,-2.674657,34.887458,-4.779304
10315,2,-0.275175,-1.216152,10.787444,-0.337808,0.049022,0.607658,-3.010816,38.336746,-5.933938
10361,1,-0.209970,0.227916,9.983454,0.068417,0.046731,-0.007178,-2.718503,38.409824,-5.568547
10361,2,-0.193220,0.220738,10.043874,0.048716,0.043066,-0.007025,-2.718503,38.745983,-5.963169
10407,1,-0.215952,0.198006,9.996616,0.024129,0.049786,0.183107,-2.893891,39.125988,-5.890091
10407,2,-0.190828,0.286541,10.012767,-0.020311,0.042302,0.063072,-2.484653,39.169834,-5.904706
10453,1,-0.084347,0.241675,10.015160,-0.018784,0.035430,-0.037874,-3.127740,39.052909,-6.211634
10453,2,-0.203988,-0.602991,11.036296,-0.779311,0.018326,-0.020006,-2.923122,39.447532,-5.510085
10499,1,0.043669,0.893121,11.334202,-4.422512,-0.046578,-0.285427,-3.025431,34.624378,-4.823151
10499,2,-0.082552,-0.726820,8.687143,-5.004208,-0.114843,-0.056505,-3.244665,29.596609,-3.931599
10545,1,-0.195613,4.038486,8.642876,-0.268781,-0.000611,-0.130572,-1.943876,14.703304,0.190003
10545,2,-0.232702,4.068995,9.203992,-0.043066,0.021533,-0.059712,-2.192341,14.089447,0.073078
10591,1,-0.122632,3.991827,9.220743,0.061087,0.030085,-0.027489,-2.016954,14.279451,0.599240
10591,2,-0.110070,3.964309,9.209975,0.071013,0.035583,-0.023671,-2.090032,14.498685,0.745396
10637,1,-0.132802,3.951148,9.138190,0.091630,0.042455,-0.012981,-1.900029,14.337913,0.350775
10637,2,-0.901496,3.352943,9.711271,0.587958,-0.032987,-0.226173,-1.563870,14.484069,0.029231
10683,1,0.141775,1.787439,8.961720,5.003444,0.067348,0.696997,-2.294651,25.665008,-3.610055
10683,2,-0.094516,0.917647,10.043874,5.003444,-0.488692,0.409738,-2.762350,33.469745,-4.267758
10729,1,-0.361316,-0.655035,10.308280,-0.016799,0.042608,0.106901,-2.513885,38.833675,-4.925460
10729,2,-0.238086,0.137587,9.921241,0.067195,0.046273,0.143401,-2.528500,39.111370,-5.130079
10775,1,-0.181855,0.298505,9.954143,0.062461,0.041386,-0.005040,-2.762350,39.155216,-5.846244
10775,2,-0.162712,0.150748,9.987642,0.051924,0.040317,-0.000458,-2.791581,39.476760,-5.480854
10822,1,-0.172283,0.153141,9.992428,0.042761,0.040470,-0.040623,-2.923122,39.213680,-5.086232
10822,2,-0.190828,0.147757,10.073185,0.042302,0.041539,-0.058338,-2.893891,39.389068,-5.480854
10868,1,-0.116052,-0.263210,10.645071,-1.861612,-0.045815,0.012523,-2.718503,38.862903,-5.071617
10868,2,-0.339183,0.769292,10.105488,-1.482112,0.055436,0.032223,-3.259281,36.860569,-5.758550
10914,1,-0.143569,1.247259,10.568500,-3.746742,-0.012217,0.036805,-3.156971,32.271266,-4.720842
10914,2,1.066601,7.384849,10.316058,-4.944954,0.003512,-0.065821,-2.674657,28.032737,-3.580824
10960,1,0.105882,3.887738,7.184450,-3.121521,-0.097280,-0.445168,-2.133879,15.726397,0.219234
10960,2,-0.026919,3.961916,8.749955,-0.017868,0.030391,-0.034667,-2.382344,14.074832,0.423853
11006,1,-0.117847,3.975076,9.183653,0.078343,0.035277,-0.018631,-1.826951,14.147911,0.146156
11006,2,-0.106481,3.963113,9.151949,0.107818,0.077122,-0.017410,-1.636948,14.600995,0.058462
11052,1,-0.181256,3.583850,8.864212,2.655584,0.131183,0.375835,-1.680795,15.741012,-0.584624
11052,2,-0.059222,3.223730,7.923832,4.893489,0.102473,0.333074,-1.724642,18.021047,-2.280035
11098,1,-0.422333,0.470190,12.894922,5.003444,-0.443794,0.092393,-3.156971,34.083602,-5.583163
11098,2,-0.358325,1.603789,5.970691,-0.072235,0.041539,0.353996,-2.937737,39.447532,-5.860859
11144,1,-0.320638,-0.043669,10.063016,0.033750,0.046731,0.132558,-3.171587,39.374454,-6.226250
11144,2,-0.162114,0.160917,9.948760,0.015424,0.042608,-0.004429,-2.923122,38.819061,-5.743935
11190,1,-0.181256,0.107079,10.015160,0.000611,0.040317,-0.003818,-2.674657,39.330604,-5.100848
11190,2,-0.333201,0.488734,10.057034,-0.060628,0.039095,0.093921,-2.762350,39.637531,-5.670856
11236,1,-0.217747,-0.114855,10.304093,-0.126907,0.032834,0.145233,-3.361590,39.856765,-5.451622
11236,2,-0.096909,-0.588634,10.783853,-1.548085,-0.047495,0.160352,-2.528500,38.804443,-5.963169
11282,1,-0.108873,0.826720,10.579867,-2.632676,-0.020159,-0.127213,-2.923122,34.843612,-4.940076
11282,2,-0.223131,1.017548,10.810772,-4.406782,-0.041386,-0.127213,-3.244665,31.993568,-4.399299
11328,1,-0.486939,2.771487,8.257632,-5.004208,0.399353,-1.073901,-2.119263,18.225666,-1.066940
11328,2,-0.075972,3.875774,8.555538,-0.689209,0.004276,-0.187230,-1.461561,14.878691,-0.043847
11375,1,-0.117847,3.910470,9.238091,0.118050,0.042913,-0.021686,-1.753873,14.805612,-0.058462
11375,2,-0.032303,3.949354,9.023335,0.243124,0.050549,-0.005192,-2.104648,15.039463,-0.087694
11421,1,-0.150748,3.262015,9.145369,3.125645,0.149815,0.408974,-1.856182,18.430284,-2.046185
11421,2,-0.083749,2.856432,9.010772,4.005443,0.134238,0.395230,-2.119263,21.207248,-2.484653
11467,1,-1.752144,0.389432,8.178071,5.003444,-0.430660,-0.018173,-2.601578,33.893596,-5.553932
11467,2,0.690927,4.186243,10.671990,-0.149662,0.060323,0.509003,-2.908506,38.935981,-5.963169
11513,1,-0.838086,1.432703,9.262019,0.191048,0.175776,1.313360,-2.806197,39.301376,-5.670856
11513,2,-0.470190,1.040280,9.781261,0.038790,0.038790,-0.020617,-2.323882,39.038291,-5.685472
11559,1,-0.163908,0.098704,10.035499,0.028558,0.040317,-0.019395,-1.651564,39.315990,-5.144694
11559,2,-0.136989,0.090329,9.977473,0.010232,0.038026,-0.016341,-2.119263,39.681381,-5.130079
11605,1,-0.156730,0.108275,9.987642,-0.073151,0.032529,0.004429,-1.797720,39.710609,-6.284712
11605,2,-0.174078,0.099900,9.975678,-0.043219,0.035583,-0.004123,-1.593101,39.652149,-5.320082
11651,1,0.772882,2.538187,11.235499,-2.600453,-0.164628,-0.707535,-2.791581,38.000583,-5.758550
11651,2,-0.493520,0.326022,10.679766,-3.222620,-0.040317,-0.160505,-2.923122,34.916690,-5.232388
11697,1,-0.177069,2.380858,9.236296,-4.762611,-0.012828,-0.328798,-2.382344,25.752704,-0.555393
11697,2,-0.294317,2.228316,8.604591,-2.942843,0.230754,-0.546877,-2.455422,21.908798,-2.382344
11743,1,-0.083749,3.610171,9.282358,-1.771204,0.073762,-0.558025,-1.520023,16.427944,-0.555393
11743,2,-0.061017,3.574279,8.865408,-0.497092,0.033598,-0.072693,-1.973107,15.390237,-0.306928
11789,1,-0.024526,3.843472,9.115458,0.191354,0.051007,0.018021,-1.783104,15.653319,-0.774627
11789,2,0.004786,3.772883,9.017951,1.125214,0.143706,0.355829,-2.382344,16.530254,-0.058462
11835,1,-0.062213,2.352743,8.908479,5.003444,0.177609,0.600480,-2.104648,23.662672,-3.624671
11835,2,0.027517,1.596611,10.861022,5.003444,-0.178525,0.141263,-2.367729,30.005846,-5.378544
11881,1,0.498904,-5.850451,14.178671,2.723085,0.251066,0.338878,-2.309266,38.775211,-6.328559
11881,2,-0.294915,-0.064606,10.084551,0.047800,0.047647,0.020617,-2.221573,39.184448,-6.065478
11927,1,-0.230309,0.004786,10.035499,0.096211,0.087506,0.254120,-1.943876,39.257526,-5.933938
11927,2,0.178864,0.454636,9.684351,0.030238,0.044440,-0.004887,-1.651564,39.228294,-5.817012
11974,1,-0.135194,0.059821,10.034900,0.038637,0.040470,-0.021838,-1.593101,39.973690,-6.182403
11974,2,-0.118445,0.093918,10.033704,0.021533,0.041081,-0.020617,-1.797720,39.535224,-6.693949
12020,1,-0.158525,-0.285344,10.252049,-0.306196,0.016035,0.025351,-2.075417,40.002925,-5.817012
12020,2,-0.110070,-0.262014,10.383056,-1.131017,-0.075442,-0.144622,-2.426191,39.257526,-6.153172
12066,1,-0.291326,0.554537,10.698908,-3.549585,-0.034361,-0.001985,-2.572347,34.522068,-5.407775
12066,2,-0.281755,1.246062,10.242478,-4.662429,-0.068570,0.031001,-2.835428,31.379714,-5.086232
12112,1,-0.821935,2.778666,8.876176,-3.253621,0.086743,-0.770148,-2.470038,22.098802,-2.484653
12112,2,-0.072383,3.083750,9.695717,-1.839773,0.087048,-0.529926,-2.455422,19.731073,-1.797720
12158,1,0.051446,3.863810,8.657233,-0.166155,0.036194,-0.089034,-1.768489,16.237941,-0.847705
12158,2,-0.126221,3.635296,9.282956,0.108123,0.042761,0.000153,-1.710026,16.223325,-0.643087
12204,1,-0.104088,3.571288,9.497712,0.425468,0.044135,0.017410,-1.666180,16.910259,-1.271558
12204,2,-0.104686,3.538386,9.315857,0.260839,0.079565,0.117133,-1.169249,16.997953,-1.110786
12250,1,-0.259023,2.966502,7.163513,3.293938,0.166766,0.400269,-1.534639,18.459514,-2.090032
12250,2,0.257228,2.444268,7.095317,5.003444,0.125686,0.390496,-1.695411,22.756504,-3.507746
12296,1,-0.017348,0.764507,9.365509,-0.115148,0.034972,0.062614,-2.470038,39.286758,-6.182403
12296,2,-0.143569,0.559920,9.896715,-0.010232,0.040012,-0.020922,-2.148495,39.695995,-6.343175
12342,1,-0.162712,0.067597,10.094720,0.018937,0.037721,-0.019090,-2.338498,39.476760,-6.050862
12342,2,-0.153739,0.067597,10.007981,0.011301,0.035736,-0.010843,-2.543116,39.301376,-6.284712
12388,1,-0.139382,0.084347,10.019348,0.016952,0.000611,-0.014508,-2.163110,39.549839,-6.094709
12388,2,-0.121436,0.042473,10.045669,0.002596,0.037568,-0.010385,-2.484653,39.710609,-5.656241
12434,1,0.046062,-1.203590,11.392827,-1.632995,-0.055283,0.189826,-2.776966,39.228294,-5.261620
12434,2,-0.942174,0.459422,11.577074,-3.692375,-0.092393,-0.333227,-2.937737,36.641330,-6.036247
12480,1,-0.066999,2.526222,9.451650,-5.004208,-0.061239,-0.401339,-2.893891,23.151124,-3.405437
12480,2,0.546162,3.934398,7.456634,-3.737884,0.146608,-1.050994,-2.236188,18.196434,-1.140017
12527,1,-0.116052,3.677768,9.351151,0.009468,0.034514,-0.032223,-1.578486,16.164865,-1.023093
12527,2,-0.119641,3.669394,9.303295,0.008552,0.034514,-0.042608,-1.534639,15.843322,-0.964630
12573,1,-0.129212,3.708875,9.267403,0.082161,0.042913,-0.015730,-1.622333,16.077169,-0.789243
12573,2,-0.025723,3.903890,8.857033,0.331547,0.061087,0.044288,-1.373867,16.018707,-0.686934
12619,1,0.141177,2.608775,7.883752,5.003444,0.114690,0.364076,-2.075417,22.142648,-3.273896
12619,2,1.038485,0.013759,10.386646,5.003444,-0.394772,0.048106,-2.338498,30.137386,-5.232388
12665,1,-0.223131,0.169292,9.975079,0.109803,0.043982,0.045509,-2.528500,39.345218,-6.270096
12665,2,-0.046660,0.595813,9.758529,0.134085,0.047342,0.044593,-2.440807,39.608303,-5.904706
12711,1,0.207577,0.669990,9.646067,0.065668,0.103694,0.793208,-2.031570,39.535224,-5.656241
12711,2,-0.598804,-0.844068,10.787444,0.167377,0.060476,0.048716,-1.666180,39.812919,-5.539316
12757,1,-0.119043,0.057428,9.993625,0.028711,0.040928,-0.023824,-1.417714,39.856765,-5.992400
12757,2,-0.123829,0.028116,10.006187,0.031154,0.034819,-0.019090,-1.739258,39.710609,-5.860859
12803,1,-0.099302,-0.487538,10.403993,0.013592,0.038026,-0.016493,-0.964630,40.368312,-6.094709
12803,2,-0.127418,-0.220738,10.167104,-0.155160,0.014355,-0.037721,-1.797720,40.456005,-5.992400
12849,1,0.103490,0.621536,10.443474,-4.400826,0.009010,0.366214,-2.060801,36.056709,-5.334697
12849,2,-0.102293,1.549951,10.315460,-5.004208,-0.100640,0.053756,-2.689272,32.095878,-3.843905
12895,1,-0.277567,3.169294,10.059427,-1.308168,0.086590,-0.334296,-2.104648,19.964923,-1.870798
12895,2,-0.229113,3.370291,9.490533,-1.126130,0.070402,-0.327576,-1.359252,18.371820,-0.993861
12941,1,-0.119641,3.664608,9.239885,-0.015730,0.036499,-0.042302,-1.461561,16.471790,-0.175387
12941,2,-0.143569,3.672384,9.283554,0.070555,0.035125,-0.021228,-1.242327,17.041801,-0.964630
12987,1,-0.155533,3.440879,9.543175,0.764956,0.100945,0.192117,-1.724642,17.743350,-0.774627
12987,2,-0.127418,3.431906,9.375678,0.611323,0.087506,0.144622,-1.929260,18.415668,-1.388483
13033,1,-0.303290,2.993421,8.621939,1.883145,0.160963,0.377515,-1.403099,20.534931,-2.309266
13033,2,-0.054437,2.802593,6.945765,5.003444,0.085674,0.139125,-1.666180,23.297281,-3.156971
13079,1,1.542174,-5.432904,19.599611,1.496314,0.147829,-0.066584,-2.046185,40.382926,-6.518562
13079,2,0.517448,0.244068,10.639088,0.409738,0.098502,0.433256,-1.943876,40.280620,-5.992400
13126,1,-0.056231,-0.205783,10.049258,0.073762,0.045815,-0.030391,-1.578486,40.894474,-6.752411
13126,2,-0.115454,-0.062213,9.996017,0.020006,0.039859,-0.012217,-1.695411,41.026016,-5.714704
13172,1,-0.089731,-0.089133,10.015160,-0.089492,0.035430,0.020769,-1.052324,40.865245,-5.802397
13172,2,-0.132203,-0.018544,10.013963,-0.085521,0.034972,0.016952,-1.271558,40.660625,-5.524701
13218,1,-0.069392,-1.296910,11.234901,-2.360689,-0.181122,0.043524,-2.002338,39.754455,-5.159310
13218,2,0.884148,3.447459,10.956136,-4.358523,-0.103694,-0.723264,-2.616194,36.831336,-5.071617
13264,1,-0.515055,1.966900,9.338589,-5.004208,-0.182038,-0.769843,-2.265419,23.414207,-3.098509
13264,2,0.053839,4.141378,7.509276,-2.769663,0.128893,-0.691041,-1.622333,18.897983,-1.388483
13310,1,-0.134596,3.503691,9.376276,0.066279,0.037721,-0.015119,-1.490792,17.304880,-0.380006
13310,2,0.059821,3.650251,8.916256,0.299171,0.056810,0.049480,-2.031570,17.918737,-0.467700
13356,1,-0.208176,2.991627,9.519845,1.680490,0.071777,0.106749,-1.622333,20.111078,-1.461561
13356,2,-0.157926,2.835495,9.571889,1.802511,0.045815,0.006720,-2.148495,21.411867,-1.739258
13402,1,4.912465,-0.395414,8.554341,4.998557,0.186008,-0.114537,-2.090032,26.249635,-3.098509
13402,2,-0.347558,1.511067,7.640282,5.003444,-0.533896,-0.436005,-1.695411,31.248172,-4.516223
13448,1,-0.352941,-0.516251,10.186246,0.370795,0.118661,0.554513,-1.446945,41.669101,-5.276235
13448,2,0.002393,-0.129212,9.786046,0.143095,0.044288,-0.069639,-1.520023,41.420639,-6.197019
13494,1,-0.101097,-0.240479,9.987045,0.025045,0.039554,-0.026420,-2.060801,42.297573,-6.664718
13494,2,-0.103490,-0.266202,9.907483,0.023976,0.042913,-0.017868,-1.739258,42.107570,-6.416252
13540,1,-0.086740,-0.239282,9.939786,0.018631,0.038485,-0.020617,-2.031570,42.370651,-5.334697
13540,2,-0.110668,-0.267996,10.036098,0.021228,0.041997,-0.018326,-2.133879,42.502193,-5.597778
13586,1,0.005384,-0.297308,10.220942,-0.126144,0.044746,0.146913,-1.636948,41.683719,-5.758550
13586,2,-0.046062,-0.402592,10.473385,-1.185995,-0.005345,0.355982,-1.520023,40.631397,-5.743935
13632,1,-0.226720,0.638285,9.696914,0.369573,0.056047,-0.087354,-1.666180,36.948261,-5.334697
13632,2,-0.181256,0.600598,9.866207,0.033445,0.039401,-0.012370,-2.031570,36.889797,-5.670856
13679,1,-0.173480,0.588036,10.019945,0.034514,0.043066,-0.016646,-1.870798,36.802104,-5.320082
13679,2,-0.131605,0.551546,10.024731,0.024282,0.047647,-0.016799,-1.797720,36.977489,-5.203157
13725,1,-0.005384,0.216550,9.991232,0.015119,0.038943,-0.015730,-2.353113,36.816719,-5.948553
13725,2,-0.121436,0.536590,9.983454,0.013134,0.040775,-0.013439,-2.060801,37.109031,-6.284712
13771,1,-0.144168,0.561117,10.043874,0.028100,0.041233,-0.017868,-2.002338,36.699794,-6.416252
13771,2,-0.136989,0.558724,10.028919,0.027184,0.035583,-0.015730,-1.724642,37.021339,-6.460100
13817,1,-0.144766,0.543769,9.997812,0.019700,0.039706,-0.017410,-1.812336,36.655948,-5.729319
13817,2,-0.130409,0.540778,10.013365,0.025962,0.037568,-0.016952,-1.578486,36.743640,-6.270096
13863,1,-0.130409,0.579063,10.019348,0.030238,0.042150,-0.017868,-1.461561,36.831336,-5.948553
13863,2,-0.119641,0.558126,10.004991,0.027794,0.040928,-0.016188,-1.914645,36.962875,-5.729319
13909,1,-0.120239,0.565903,9.988839,0.027184,0.041233,-0.013744,-1.490792,36.699794,-5.144694
13909,2,-0.118445,0.545564,9.996017,0.026420,0.039095,-0.015882,-2.148495,37.094417,-5.466238
13955,1,-0.147159,0.564706,9.967303,0.026725,0.041997,-0.014661,-1.856182,37.196723,-4.691610
13955,2,-0.131605,0.561117,10.006785,0.035583,0.045204,-0.010385,-1.198480,37.313652,-4.764689
14001,1,-0.142971,0.538385,10.017552,0.028558,0.041997,-0.014508,-1.900029,40.923706,-4.866998
14001,2,-0.135793,0.564108,9.994222,0.027031,0.041386,-0.017104,-1.680795,36.904411,-5.977784
14047,1,-0.145364,0.561117,9.992428,0.031765,0.041844,-0.019090,-1.446945,37.094417,-5.393160
14047,2,-0.137587,0.542572,10.098310,0.039248,0.037874,-0.016646,-1.578486,37.094417,-5.393160
14093,1,-0.126820,0.528216,10.001999,0.028405,0.042455,-0.016188,-1.753873,36.977489,-5.276235
14093,2,-0.151944,0.558724,9.991232,0.026420,0.038026,-0.016952,-1.987723,36.845951,-5.641625
14139,1,-0.148355,0.513859,10.053445,0.029780,0.038485,-0.017104,-1.680795,36.685180,-5.363928
14139,2,-0.131007,0.513859,10.063016,0.035277,0.037263,-0.017562,-1.812336,36.919029,-5.524701
14185,1,-0.136989,0.530010,10.019348,0.030696,0.037721,-0.020922,-1.739258,36.948261,-5.510085
14185,2,-0.126221,0.519243,9.993026,0.021838,0.033903,-0.018631,-1.417714,37.021339,-5.627010
14231,1,-0.135194,0.544965,9.971490,0.020464,0.040012,-0.018173,-1.929260,36.758258,-4.998538
14231,2,-0.083749,0.370289,9.957134,0.033445,0.039401,-0.019548,-1.826951,36.743640,-6.109325
14278,1,0.043669,0.587438,10.019348,0.018479,0.038485,-0.016188,-1.739258,37.211341,-4.969307
14278,2,-0.136391,0.524626,10.025927,0.025504,0.040164,-0.018937,-1.812336,37.182109,-5.393160
14324,1,-0.122632,0.569492,9.968500,0.017715,0.040012,-0.016952,-1.724642,36.685180,-5.919322
14324,2,-0.136989,0.551546,9.979267,0.025504,0.036805,-0.015882,-1.943876,37.079803,-6.138556
14370,1,-0.136391,0.549153,10.028919,0.028100,0.039401,-0.019090,-1.593101,36.743640,-5.729319
14370,2,-0.132802,0.522234,10.023535,0.029780,0.037721,-0.017410,-2.265419,36.626716,-6.109325
14416,1,-0.126820,0.559322,9.970294,0.019090,0.040623,-0.014355,-1.636948,36.889797,-6.635486
14416,2,-0.122632,0.553938,10.010972,0.025198,0.038943,-0.019090,-1.622333,36.758258,-5.466238
14462,1,-0.133400,0.530608,9.991829,0.027947,0.040623,-0.016799,-1.958492,37.269802,-6.781643
14462,2,-0.141177,0.543171,10.004991,0.018631,0.038179,-0.018479,-1.607717,37.474422,-6.255481
14508,1,-0.151944,0.554537,9.964910,0.025198,0.039095,-0.017868,-1.885414,36.860569,-6.036247
14508,2,-0.154337,0.535394,9.990035,0.022755,0.042913,-0.018631,-1.958492,37.050567,-5.802397
14554,1,-0.134596,0.531207,9.978670,0.023060,0.039095,-0.019090,-1.870798,37.079803,-6.021631
14554,2,-0.133400,0.539581,9.987642,0.026267,0.036805,-0.020769,-1.929260,37.035953,-6.737796
14600,1,-0.130409,0.542572,9.994222,0.023671,0.077580,-0.017868,-1.432330,36.919029,-5.261620
14600,2,-0.139382,0.553938,10.009178,0.025656,0.043066,-0.018937,-1.563870,37.123645,-5.714704
14646,1,-0.141177,0.531805,10.000803,0.027184,0.041844,-0.020922,-1.753873,37.167495,-5.846244
14646,2,-0.123829,0.555733,10.004991,0.024587,0.039248,-0.018326,-1.403099,37.094417,-6.401637
14692,1,-0.144766,0.546760,9.994821,0.025504,0.040470,-0.020006,-1.315405,37.035953,-5.378544
14692,2,-0.126820,0.547956,10.011570,0.022602,0.038637,-0.018326,-1.651564,36.816719,-5.977784
14738,1,-0.133998,0.536590,10.005588,0.019395,0.039401,-0.018631,-1.739258,36.787490,-5.992400
14738,2,-0.141177,0.540180,10.006187,0.029627,0.036346,-0.016035,-1.286174,36.977489,-5.787781
14784,1,-0.132802,0.546162,9.979267,0.028253,0.039859,-0.019395,-1.593101,36.670566,-5.290851
14784,2,-0.142971,0.565903,10.003195,0.026420,0.038637,-0.018631,-1.490792,37.021339,-5.290851
14831,1,-0.151944,0.524028,9.993026,0.021075,0.077580,-0.018021,-1.812336,36.641330,-5.729319
14831,2,-0.145364,0.524028,10.021142,0.027031,0.037568,-0.018173,-1.183864,36.246711,-5.378544
14877,1,-0.135793,0.538983,10.031910,0.021686,0.040623,-0.015424,-1.593101,37.211341,-5.568547
14877,2,-0.130409,0.546760,10.012767,0.025656,0.037568,-0.017868,-1.505408,36.875183,-5.758550
14923,1,-0.138186,0.577867,9.988241,0.024282,0.039095,-0.019090,-1.140017,36.919029,-5.057001
14923,2,-0.122632,0.539581,9.997812,0.022602,0.042608,-0.018937,-1.183864,37.050567,-5.130079
14969,1,-0.139382,0.536590,9.996017,0.022602,0.043524,-0.020464,-1.330020,36.772872,-5.817012
14969,2,-0.129212,0.525225,9.979267,0.021380,0.042913,-0.017410,-1.856182,36.451332,-5.641625
15015,1,-0.151346,0.543171,9.999606,0.023518,0.037415,-0.018631,-1.417714,36.743640,-5.422391
15015,2,-0.138784,0.552144,10.006785,0.023060,0.040164,-0.017410,-1.680795,37.138263,-5.524701
15061,1,-0.157926,0.543769,9.999606,0.021533,0.040012,-0.017104,-1.023093,37.138263,-5.378544
15061,2,-0.150748,0.547956,9.993625,0.026114,0.036346,-0.019090,-1.081555,36.685180,-5.729319
15107,1,-0.136989,0.553340,9.975079,0.024129,0.036957,-0.017104,-1.052324,36.962875,-5.510085
15107,2,-0.143569,0.547956,10.003195,0.025198,0.040470,-0.017410,-1.227711,36.772872,-5.480854
15153,1,-0.127418,0.555135,9.977473,0.026114,0.038332,-0.021380,-1.432330,36.495174,-5.568547
15153,2,-0.139382,0.561117,9.981660,0.023060,0.043219,-0.016493,-1.680795,36.787490,-4.808536
15199,1,-0.139382,0.546760,9.991829,0.021686,0.040470,-0.017410,-1.534639,36.860569,-5.276235
15199,2,-0.132802,0.544367,10.013963,0.023671,0.040775,-0.017562,-1.680795,37.138263,-5.320082
15245,1,-0.126820,0.553938,9.995420,0.021075,0.037721,-0.018326,-1.461561,36.962875,-5.495469
15245,2,-0.131007,0.535394,10.007383,0.028711,0.040623,-0.021075,-1.607717,36.641330,-5.802397
15291,1,-0.147757,0.528216,9.962517,0.025045,0.041081,-0.021228,-1.520023,37.138263,-5.904706
15291,2,-0.133400,0.564706,9.998410,0.024893,0.038943,-0.018326,-1.461561,37.065185,-5.831628
15337,1,-0.137587,0.522832,9.994821,0.025809,0.038485,-0.023060,-1.578486,36.787490,-5.860859
15337,2,-0.136391,0.512662,10.024731,0.020922,0.038790,-0.019090,-1.256942,36.597488,-5.466238
15383,1,-0.130409,0.539581,10.235300,0.024129,0.039859,-0.019853,-1.023093,36.816719,-5.831628
15383,2,-0.122632,0.537787,9.890134,0.023824,0.037568,-0.014355,-1.169249,36.889797,-5.407775
15430,1,-0.128016,0.567697,9.789038,0.023060,0.041844,-0.018479,-1.534639,36.392868,-5.583163
15430,2,-0.146560,0.550947,10.073784,0.023671,0.041081,-0.020464,-1.271558,37.313652,-5.305466
15476,1,-0.120838,0.540778,9.995420,0.023824,0.042608,-0.016493,-1.359252,36.612102,-5.583163
15476,2,-0.136989,0.535394,9.976875,0.027794,0.041233,-0.019853,-1.169249,37.021339,-5.627010
15522,1,-0.136391,0.533001,9.966107,0.027642,0.039095,-0.017257,-1.446945,37.342880,-5.641625
15522,2,-0.153141,0.541974,10.037294,0.025504,0.038943,-0.018937,-1.344636,37.372112,-5.700088
15568,1,-0.143569,0.535394,9.999606,0.026420,0.042302,-0.018173,-1.578486,36.758258,-5.553932
15568,2,-0.136989,0.547358,9.976277,0.025045,0.037568,-0.018479,-1.578486,36.845951,-5.714704
15614,1,-0.141177,0.546162,9.990035,0.024435,0.038485,-0.019700,-1.943876,36.670566,-5.247004
15614,2,-0.126221,0.530010,9.979866,0.022144,0.035430,-0.017410,-1.563870,36.948261,-5.393160
15660,1,-0.141775,0.559322,9.958928,0.027947,0.001680,-0.016799,-1.271558,37.006725,-5.349313
15660,2,-0.147757,0.552742,10.005588,0.023976,0.077885,-0.018631,-1.461561,36.758258,-5.247004
15706,1,-0.136989,0.540778,10.001400,0.026878,0.039554,-0.016952,-1.490792,36.729026,-6.021631
15706,2,-0.124427,0.546760,9.983454,0.025351,0.040775,-0.018021,-1.286174,36.977489,-5.583163
15752,1,-0.142373,0.531207,9.977473,0.022144,0.040928,-0.017104,-0.964630,36.919029,-5.393160
15752,2,-0.120838,0.564108,9.993026,0.023060,0.035125,-0.017257,-1.227711,36.714408,-5.334697
15798,1,-0.128614,0.543769,9.985250,0.025656,0.038943,-0.020311,-1.110786,37.240573,-5.510085
15798,2,-0.142971,0.547358,10.003195,0.025198,0.042150,-0.018326,-1.520023,36.860569,-5.232388
15844,1,-0.125623,0.558126,9.997213,0.025351,0.041081,-0.016799,-1.344636,36.407482,-5.013154
15844,2,-0.131007,0.550349,9.983454,0.024740,0.042608,-0.017868,-1.140017,36.495174,-5.583163
15890,1,-0.139382,0.546760,9.985848,0.027489,0.037415,-0.014661,-1.958492,36.451332,-5.656241
15890,2,-0.165105,0.546162,9.990035,0.024587,0.042150,-0.020617,-1.593101,36.553638,-5.627010
15936,1,-0.118445,0.528216,9.984053,0.027489,0.041692,-0.019548,-1.417714,36.655948,-5.627010
15936,2,-0.133400,0.547956,10.006187,0.025504,0.039095,-0.018479,-1.841567,36.612102,-6.299327
15983,1,-0.150748,0.524028,9.986446,0.024893,0.038790,-0.018326,-1.578486,37.021339,-5.685472
15983,2,-0.133400,0.549153,10.028320,0.027031,0.042608,-0.016799,-1.695411,36.655948,-5.977784
16029,1,-0.133998,0.558126,9.995420,0.028253,0.043219,-0.018784,-1.096171,36.758258,-5.846244
16029,2,-0.145962,0.555733,9.977473,0.026573,0.038943,-0.017715,-1.403099,36.685180,-5.495469
16075,1,-0.156730,0.558126,10.000205,0.020311,0.040928,-0.016952,-1.242327,36.568252,-5.948553
16075,2,-0.130409,0.538385,9.953544,0.023671,0.042455,-0.021380,-1.023093,37.006725,-5.773166
16121,1,-0.113659,0.545564,9.997812,0.019090,0.039554,-0.017868,-1.593101,36.933647,-4.925460
16121,2,-0.123829,0.557528,9.979267,0.021228,0.042150,-0.018173,-1.856182,36.626716,-5.042385
16167,1,-0.149551,0.540180,9.994821,0.026114,0.077274,-0.019090,-1.739258,36.597488,-6.313943
16167,2,-0.133998,0.530010,9.982857,0.025045,0.039859,-0.018173,-1.900029,37.094417,-5.451622
16213,1,-0.121436,0.538983,10.006785,0.026267,0.041386,-0.017410,-1.768489,37.182109,-5.641625
16213,2,-0.138784,0.537787,9.991232,0.028711,0.041081,-0.018631,-1.885414,36.802104,-5.817012
16259,1,-0.138784,0.548555,9.985250,0.027642,0.039248,-0.019090,-1.432330,36.919029,-5.612394
16259,2,-0.147159,0.552742,9.991232,0.024129,0.039859,-0.016646,-1.081555,36.875183,-5.729319
16305,1,-0.132203,0.533001,9.990035,0.024587,0.040012,-0.021380,-1.753873,37.006725,-5.904706
16305,2,-0.134596,0.539581,10.003793,0.026725,0.037721,-0.018784,-1.490792,36.655948,-6.007015
16351,1,-0.154935,0.535394,10.007383,0.023366,0.041539,-0.018173,-1.710026,36.568252,-6.094709
16351,2,-0.129212,0.544965,9.987642,0.026267,0.043677,-0.019853,-1.359252,36.655948,-5.670856
16397,1,-0.133998,0.546760,9.982258,0.029169,0.040470,-0.019090,-2.075417,36.451332,-6.635486
16397,2,-0.139382,0.540180,9.987642,0.025656,0.039706,-0.016952,-1.476176,36.129787,-5.890091
16443,1,-0.145364,0.537189,9.991232,0.021991,0.040164,-0.018021,-1.388483,36.685180,-5.451622
16443,2,-0.131605,0.539581,10.004991,0.027336,0.039095,-0.018326,-1.724642,36.305175,-6.080093
16489,1,-0.113061,0.549751,9.993625,0.026878,0.041844,-0.019242,-1.753873,36.685180,-6.328559
16489,2,-0.137587,0.541974,10.015757,0.029169,0.039859,-0.018479,-2.484653,36.962875,-5.714704
16535,1,-0.109472,0.521635,10.156336,0.026420,0.035277,-0.018937,-1.973107,36.612102,-6.094709
16535,2,-0.147757,0.575474,9.690932,0.023366,0.036805,-0.017104,-2.528500,36.275943,-5.466238
