millis,id,ax,ay,az,gx,gy,gz,mx,my,mz
1,1,-0.096909,0.382852,9.815958,0.025962,0.039248,-0.020159,4.691610,39.199062,1.563870
1,2,-0.128614,0.380459,10.116854,0.023671,0.035888,-0.023671,5.217772,39.125988,1.417714
47,1,-0.131605,0.413958,10.000803,0.023671,0.038026,-0.020311,4.925460,39.184448,1.315405
47,2,-0.117248,0.352343,9.967303,0.023976,0.039401,-0.017715,4.808536,38.775211,1.066940
92,1,-0.097508,0.364905,10.034302,0.021686,0.040164,-0.019548,4.764689,39.564453,2.031570
92,2,-0.116052,0.387637,10.007981,0.018326,0.039859,-0.019090,4.837767,39.213680,1.403099
138,1,-0.113061,0.396012,9.985848,0.026114,0.039706,-0.015730,4.940076,38.760597,1.008477
138,2,-0.127418,0.355334,10.019945,0.026878,0.039095,-0.018021,4.501607,39.067523,1.256942
184,1,-0.108873,0.373879,10.048062,0.023824,0.039859,-0.019242,4.472376,39.038291,2.236188
184,2,-0.126221,0.374477,9.961919,0.022755,0.077427,-0.019548,4.823151,38.994445,1.812336
230,1,-0.121436,0.366700,9.985250,0.023213,0.038790,-0.018631,4.720842,38.848289,1.110786
230,2,-0.102891,0.401396,10.009178,0.023060,0.037415,-0.020769,4.940076,39.374454,1.227711
275,1,-0.114855,0.390628,10.002597,0.028100,0.034361,-0.018937,4.837767,39.184448,1.943876
275,2,-0.147159,0.397209,9.994821,0.029169,0.041386,-0.019395,4.662379,38.965217,1.417714
322,1,-0.139382,0.361316,10.036098,0.022907,0.035430,-0.018326,4.428530,39.228294,1.403099
322,2,-0.113659,0.373879,10.030115,0.027184,0.037721,-0.020311,4.691610,39.447532,1.520023
368,1,-0.096909,0.386441,9.999008,0.021380,0.036041,-0.017562,4.896229,39.447532,0.964630
368,2,-0.125623,0.379262,10.051651,0.028405,0.039401,-0.014966,4.413914,39.432914,0.833090
413,1,-0.139980,0.370289,10.021142,0.021686,0.040470,-0.016952,4.808536,39.272140,1.388483
413,2,-0.101695,0.382852,9.999606,0.026573,0.038332,-0.021228,4.706226,39.111370,1.636948
459,1,-0.108873,0.382852,9.988839,0.019548,0.001069,-0.020769,4.940076,39.242912,1.403099
459,2,-0.130409,0.384646,10.000803,0.026420,0.037110,-0.018937,5.057001,39.301376,1.359252
505,1,-0.113659,0.390628,10.051651,0.023671,0.037568,-0.020769,5.188541,39.169834,1.023093
505,2,-0.129212,0.388834,10.005588,0.024282,0.037874,-0.018784,5.173926,39.579071,1.563870
551,1,-0.093918,0.373879,10.022338,0.024587,0.040623,-0.019242,4.750073,39.184448,0.716165
551,2,-0.121436,0.361914,9.996017,0.019700,0.035736,-0.018937,4.983923,39.564453,1.593101
596,1,-0.122034,0.396012,10.005588,0.020006,0.038485,-0.018326,4.706226,39.345218,0.745396
596,2,-0.135793,0.387637,9.999606,0.023518,0.039095,-0.018937,5.071617,39.301376,0.891552
642,1,-0.138186,0.372682,9.988839,0.019395,0.039554,-0.021380,4.545454,39.213680,0.774627
642,2,-0.116052,0.378066,10.001999,0.018784,0.037721,-0.017868,4.574686,39.447532,0.686934
688,1,-0.108873,0.433101,9.950554,0.029474,0.037415,-0.019853,4.706226,39.505992,0.730780
688,2,-0.106481,0.363709,10.041480,0.021686,0.039859,-0.015577,4.735457,39.228294,1.242327
734,1,-0.126221,0.399003,10.039686,0.023518,0.038790,-0.019700,4.852383,39.023677,1.958492
734,2,-0.131007,0.366102,10.010972,0.021838,0.036499,-0.017410,4.545454,39.052909,1.037708
779,1,-0.130409,0.388834,10.015160,0.017410,0.036194,-0.016799,4.764689,39.432914,1.373867
779,2,-0.110668,0.349950,10.018151,0.023060,0.041844,-0.017410,4.296989,39.184448,1.227711
825,1,-0.110070,0.372682,9.996017,0.024129,0.040928,-0.018937,3.873136,39.345218,0.131541
825,2,-0.115454,0.356531,10.001400,0.027336,0.039554,-0.018021,4.223911,39.885997,0.058462
871,1,-0.123829,0.367298,10.016356,0.028711,0.036805,-0.019548,4.326220,39.155216,0.876937
871,2,-0.086740,0.334995,10.003793,0.025809,0.034208,-0.019242,4.355452,39.783687,1.008477
917,1,-0.129811,0.364307,10.341182,0.012523,0.041997,-0.017257,4.194680,39.652149,0.219234
917,2,-0.170489,0.376271,10.137792,-0.005803,0.040623,-0.018326,4.750073,39.622917,0.950015
963,1,-0.133400,0.396012,9.970294,0.012828,0.038026,-0.016952,4.662379,39.301376,0.453084
963,2,-0.111864,0.394816,10.099507,0.022449,0.040012,-0.019853,4.399299,39.754455,0.920783
1009,1,-0.090329,0.369093,10.094720,0.012523,0.040164,-0.018173,4.545454,39.315990,0.409237
1009,2,-0.143569,0.315853,9.893126,0.016188,0.039859,-0.018784,4.457761,39.242912,0.876937
1055,1,-0.125025,0.446860,9.898509,0.037874,0.042913,-0.017257,4.676995,39.403682,0.920783
1055,2,-0.119043,0.407378,10.027723,0.020617,0.038790,-0.019548,4.560070,38.804443,0.277697
1101,1,-0.089133,0.392423,10.032507,0.025656,0.041692,-0.020311,4.866998,39.345218,0.306928
1101,2,-0.110668,0.408575,10.011570,0.028711,0.041997,-0.020769,4.384683,38.833675,0.336159
1146,1,-0.107079,0.412164,10.028320,-0.000153,0.042761,-0.016646,4.413914,39.155216,1.680795
1146,2,-0.104686,0.365504,10.001999,-0.013134,0.036194,-0.020311,4.486992,39.038291,0.979246
1192,1,-0.116650,0.433101,9.979866,0.021380,0.039401,-0.017562,4.823151,39.403682,0.453084
1192,2,-0.123230,0.411566,10.005588,0.017715,0.038332,-0.018937,4.969307,38.921367,0.847705
1238,1,-0.087338,0.397209,10.030713,0.016799,0.036652,-0.016646,5.027770,38.804443,0.014616
1238,2,-0.125623,0.439681,10.004991,0.011759,0.036194,-0.024435,4.866998,38.731365,0.716165
1284,1,0.222533,-0.814158,11.309078,0.058948,0.053298,-0.020464,4.910845,38.453666,0.774627
1284,2,-0.116052,0.523430,9.918250,0.049175,0.046273,-0.019548,4.501607,38.804443,0.204619
1330,1,-0.101695,0.406780,10.027723,0.027794,0.037263,-0.021228,5.305466,38.892139,-0.233850
1330,2,-0.124427,0.430110,10.008580,0.027031,0.036652,-0.021991,4.793920,38.950599,0.248465
1375,1,-0.100499,0.369093,10.027723,0.024435,0.040012,-0.021380,4.691610,39.125988,0.745396
1375,2,-0.111266,0.410967,9.990633,0.009621,0.037415,-0.019700,3.931599,39.199062,-0.204619
1421,1,-0.096909,0.389432,10.003793,0.029627,0.035736,-0.016646,5.042385,38.935981,0.336159
1421,2,-0.126221,0.425324,9.974482,0.030696,0.002749,-0.018479,4.954691,38.950599,-0.160772
1467,1,-0.110668,0.399601,9.984652,0.020769,0.038485,-0.018326,4.589301,38.658287,0.175387
1467,2,-0.108873,0.383450,10.036098,0.020769,0.038026,-0.020311,4.910845,38.833675,0.423853
1513,1,-0.114257,0.396012,10.021142,0.014508,0.040928,-0.016952,5.627010,39.125988,1.227711
1513,2,-0.125025,0.439083,10.000803,0.011454,0.037721,-0.018784,4.925460,38.848289,1.520023
1559,1,-0.122034,0.406780,10.034900,0.017257,0.001527,-0.016952,4.750073,38.512130,0.745396
1559,2,-0.126221,0.421137,9.983454,0.019090,0.039859,-0.019090,4.691610,38.643669,0.482315
1605,1,-0.113659,0.406780,10.025927,0.027336,0.042608,-0.015882,5.159310,38.775211,0.920783
1605,2,-0.113061,0.407378,10.011570,0.013286,0.034056,-0.019242,5.086232,38.950599,0.555393
1651,1,-0.128614,0.410369,10.009178,0.005192,0.038179,-0.019090,3.990061,31.131246,0.116925
1651,2,-0.096909,0.415753,9.973883,0.009316,0.036652,-0.020769,3.975446,30.897399,0.116925
1697,1,-0.104088,0.453440,10.017552,0.018937,0.041539,-0.017410,3.741596,31.102016,0.014616
1697,2,-0.112463,0.433101,10.016955,0.023366,0.038332,-0.019242,3.990061,31.131246,0.116925
1742,1,-0.123829,0.427717,10.028919,0.023060,0.038332,-0.017410,3.800058,30.897399,0.116925
1742,2,-0.133998,0.437288,10.015160,0.012217,0.036805,-0.018631,4.048524,30.868165,1.885414
1788,1,-0.104088,0.387039,10.066008,0.025504,0.040164,-0.019700,3.800058,31.102016,0.014616
1788,2,-0.097508,0.429512,9.984652,0.022449,0.038179,-0.020617,3.800058,31.131246,0.131541
1834,1,-0.133400,0.421137,10.006187,0.021686,0.041692,-0.018173,4.033908,31.145864,0.116925
1834,2,-0.127418,0.436690,9.988241,0.036957,0.040164,-0.020159,3.800058,31.102016,0.131541
1880,1,-0.093918,0.434896,9.996017,0.040775,0.041997,-0.021533,5.305466,38.819061,0.950015
1880,2,-0.105284,0.389432,9.983454,0.049022,0.037721,-0.018784,4.033908,30.912014,0.131541
1925,1,-0.116052,0.404985,9.926625,0.016188,0.038179,-0.022449,5.363928,39.096755,0.789243
1925,2,-0.093320,0.400200,9.960125,0.015730,0.039554,-0.022602,5.305466,39.038291,0.833090
1971,1,-0.078365,0.388834,10.082159,0.031154,0.041539,-0.019090,4.808536,38.994445,1.666180
1971,2,-0.101097,0.402592,10.150953,0.030543,0.039095,-0.018173,5.130079,38.789825,0.920783
2017,1,-0.123829,0.410967,10.003195,0.013286,0.041997,-0.020464,5.203157,39.213680,1.023093
2017,2,-0.086142,0.338584,10.030115,0.027642,0.040775,-0.020617,4.925460,39.257526,1.140017
2062,1,-0.096909,0.456431,9.926028,0.034208,0.040928,-0.019242,4.896229,38.819061,0.365390
2062,2,-0.080160,0.420539,9.920643,0.032223,0.037721,-0.019548,4.808536,38.658287,0.540777
2108,1,-0.109472,0.431904,10.052846,0.028253,0.040623,-0.021533,5.173926,38.833675,0.701549
2108,2,-0.162114,0.621536,9.779467,0.019700,0.037721,-0.020006,5.466238,38.775211,1.110786
2154,1,-0.093320,0.432503,9.972687,-0.003360,0.035888,-0.016799,5.261620,39.096755,1.271558
2154,2,-0.123230,0.436690,9.994821,-0.019700,0.034361,-0.017562,5.290851,38.979831,1.607717
2200,1,-0.110668,0.440279,10.013365,0.018021,0.038332,-0.017562,4.823151,38.906753,1.549255
2200,2,-0.113061,0.437887,10.048062,0.020769,0.044746,-0.017104,5.334697,39.082138,1.154633
2246,1,-0.113659,0.445065,9.958928,0.021991,0.038485,-0.017868,5.086232,38.804443,1.490792
2246,2,-0.091525,0.446860,9.958928,0.021228,0.040928,-0.018631,5.290851,38.775211,1.373867
2292,1,-0.110070,0.424726,10.011570,0.017104,0.038943,-0.020311,3.975446,30.868165,2.002338
2292,2,-0.116650,0.477368,10.018151,0.010996,0.034667,-0.018173,3.756212,30.195850,0.000000
2338,1,-0.119043,0.467797,10.027723,0.034819,0.039706,-0.017562,4.048524,30.181232,0.014616
2338,2,-0.101097,0.449851,10.010972,0.036041,0.043219,-0.018173,5.203157,38.263668,0.964630
2383,1,-0.110668,0.449252,9.990633,0.037110,0.045051,-0.019853,3.975446,31.116632,0.116925
2383,2,-0.133400,0.457029,9.982258,0.044135,0.039706,-0.018326,3.990061,30.166616,0.000000
2429,1,-0.132802,0.426521,10.087543,0.046426,0.040928,-0.021686,5.042385,38.702133,1.636948
2429,2,-0.131605,0.448654,10.007383,0.034514,0.035125,-0.023060,4.779304,38.687519,1.768489
2475,1,-0.085543,0.372084,10.121042,0.030696,0.037874,-0.021380,4.735457,38.848289,1.110786
2475,2,-0.098704,0.395414,10.048659,0.024435,0.039401,-0.018173,4.589301,38.731365,1.300789
2521,1,-0.128016,0.465404,9.982258,-0.022602,0.032987,-0.018173,4.589301,38.424438,0.964630
2521,2,-0.120239,0.425922,10.031311,0.002138,0.036194,-0.021228,4.530839,38.731365,0.716165
2566,1,-0.088534,0.439083,10.031910,0.018021,0.038485,-0.019548,4.472376,38.745983,1.330020
2566,2,-0.118445,0.436092,9.960125,0.008705,0.034972,-0.018784,5.071617,38.731365,1.373867
2612,1,-0.114855,0.486341,9.888938,0.035125,0.041233,-0.020311,3.800058,31.116632,0.131541
2612,2,-0.133400,0.471984,9.963115,0.066126,0.047495,-0.021533,4.048524,31.116632,0.014616
2658,1,-0.294317,0.812961,10.260423,0.051313,0.038026,-0.016646,4.516223,38.935981,0.920783
2658,2,-0.126221,0.415753,10.245470,0.001985,0.037721,-0.017104,4.866998,39.359836,0.818474
2703,1,-0.093320,0.361914,10.134202,-0.061087,0.030849,-0.018631,4.954691,39.315990,0.716165
2703,2,-0.181256,-0.180658,11.224731,0.072846,0.053909,-0.020311,3.975446,30.882781,0.131541
2749,1,-0.123829,0.381655,10.370493,0.035583,0.027336,-0.018173,4.837767,39.389068,1.110786
2749,2,-0.133400,0.549153,9.946964,0.027184,0.034972,-0.021075,4.735457,39.096755,1.198480
2796,1,-0.116650,0.429512,10.086345,0.026878,0.039401,-0.018937,4.764689,39.038291,0.496931
2796,2,-0.125623,0.455235,10.110872,0.020464,0.037721,-0.017715,4.793920,39.199062,0.935399
2842,1,-0.101695,1.026521,10.688738,0.093462,0.052229,-0.025045,4.560070,39.096755,0.920783
2842,2,0.046660,0.205783,9.956535,0.030391,0.037874,-0.020464,5.100848,39.228294,1.183864
2888,1,-0.146560,0.382852,10.308878,0.026573,0.039554,-0.020006,4.720842,39.505992,2.016954
2888,2,-0.126221,0.430708,10.147364,0.019700,0.039706,-0.018173,4.603917,39.389068,0.760012
2933,1,-0.097508,0.429512,9.957732,0.034819,0.041539,-0.019548,5.320082,39.345218,0.847705
2933,2,-0.085543,0.385244,10.035499,0.025045,0.036957,-0.018631,5.247004,39.125988,0.204619
2979,1,0.095115,0.037687,9.166306,0.009010,0.054367,-0.018326,4.954691,39.622917,0.686934
2979,2,-0.064606,0.425922,9.708879,-0.001527,0.042150,-0.015119,4.413914,39.359836,0.833090
3025,1,-0.105284,0.461815,9.988839,0.005498,0.035888,-0.018631,4.633148,39.125988,1.140017
3025,2,-0.048455,0.536590,9.886546,0.023976,0.038790,-0.017715,4.940076,38.906753,0.833090
3070,1,-0.045464,0.131605,10.698310,0.022297,-0.002902,-0.018173,4.881614,39.242912,1.154633
3070,2,-0.214756,0.525823,11.054841,0.074678,0.039859,-0.021228,4.896229,39.272140,1.008477
3116,1,-0.093918,0.432503,9.828520,0.014966,0.036499,-0.016952,4.267758,39.023677,1.490792
3116,2,-0.115454,0.284148,10.279566,0.022907,0.040164,-0.019395,4.808536,39.242912,0.847705
3162,1,0.000000,0.000000,0.000000,0.005192,0.007330,-0.019242,4.603917,38.775211,0.979246
3162,2,0.000000,0.000000,0.000000,0.030238,0.004887,-0.018784,4.311605,38.877521,1.242327
3207,1,-0.126221,0.502493,9.888938,0.026573,0.041233,-0.017715,3.756212,31.102016,0.000000
3207,2,-0.085543,0.411566,9.899108,0.036805,0.040470,-0.022602,3.741596,31.131246,0.000000
3253,1,-0.147757,0.504886,10.194622,0.016493,0.040012,-0.017868,4.355452,38.745983,1.593101
3253,2,-0.220738,0.439681,10.184452,0.009621,0.036805,-0.020311,4.486992,38.760597,1.636948
3298,1,-0.123829,0.446261,9.970294,0.009316,0.035125,-0.018631,3.975446,31.102016,0.000000
3298,2,-0.100499,0.434297,10.006785,0.009927,0.035583,-0.016646,4.033908,30.882781,0.131541
3344,1,0.000000,0.000000,0.000000,0.008247,0.005192,-0.019548,3.741596,30.868165,0.116925
3344,2,0.000000,0.000000,0.000000,0.025351,0.005192,-0.020922,3.814674,29.932767,0.000000
3389,1,0.000000,0.000000,0.000000,0.035125,0.007636,-0.019395,3.990061,29.961999,0.131541
3389,2,0.000000,0.000000,0.000000,0.032376,0.007330,-0.016035,4.881614,39.593685,0.453084
3434,1,0.000000,0.000000,0.000000,0.022602,0.005192,-0.016799,4.662379,39.637531,1.125402
3434,2,0.000000,0.000000,0.000000,0.021991,0.007330,-0.018479,4.793920,39.184448,1.286174
3481,1,-0.150748,0.444467,10.080365,0.027184,0.044135,-0.018937,4.048524,31.131246,0.014616
3481,2,-0.076570,0.400200,10.213166,0.038179,0.037721,-0.020311,3.975446,31.116632,0.131541
3526,1,-0.090329,0.427119,9.977473,0.013744,0.036805,-0.016952,3.741596,31.131246,0.116925
3526,2,-0.142373,0.521037,9.910473,0.007789,0.039095,-0.014966,4.472376,39.155216,0.672318
3572,1,-0.118445,0.570688,9.885350,0.024740,0.035583,-0.017868,4.530839,38.950599,1.227711
3572,2,-0.120838,0.641276,9.747762,0.025656,0.036499,-0.019090,4.516223,38.804443,1.607717
3618,1,0.000000,0.000000,0.000000,0.655458,0.000305,-0.018784,3.814674,31.116632,0.116925
3618,2,0.000000,0.000000,0.000000,0.003054,0.000000,-0.020922,3.814674,30.882781,0.116925
3663,1,0.000000,0.000000,0.000000,0.032376,0.004887,-0.021075,4.048524,31.116632,0.116925
3663,2,0.000000,0.000000,0.000000,0.029322,0.007330,-0.021228,3.756212,31.102016,0.000000
3708,1,0.000000,0.000000,0.000000,0.034208,0.007330,-0.021838,3.814674,30.882781,0.000000
3708,2,0.000000,0.000000,0.000000,0.007941,0.007330,-0.018937,3.990061,31.116632,0.131541
3754,1,0.000000,0.000000,0.000000,0.019853,0.000000,-0.019548,4.355452,38.716747,1.256942
3754,2,0.000000,0.000000,0.000000,0.000916,0.007330,-0.019090,5.173926,39.038291,0.789243
3799,1,-0.102891,0.422333,9.888339,0.024587,0.034208,-0.019853,3.990061,30.868165,0.116925
3799,2,-0.110668,0.422333,9.915857,0.001680,0.031460,-0.017104,4.033908,29.932767,0.116925
3845,1,-0.101097,0.397209,10.012168,0.022297,0.038179,-0.017715,3.741596,30.882781,0.014616
3845,2,-0.131007,0.492323,10.010972,0.028711,0.037263,-0.013897,4.033908,30.882781,0.131541
3891,1,-0.105882,0.263809,10.258030,0.004734,0.032987,-0.020006,3.814674,30.181232,0.116925
3891,2,-0.105882,0.452842,10.025330,-0.009468,0.031612,-0.017257,3.756212,30.897399,0.000000
3937,1,0.000000,0.000000,0.000000,0.000611,0.007330,0.000305,3.756212,30.210464,0.000000
3937,2,0.000000,0.000000,0.000000,0.034514,0.005192,0.045051,4.033908,30.868165,0.116925
3982,1,0.000000,0.000000,0.000000,0.005803,0.002749,0.005345,4.486992,39.009059,0.686934
3982,2,0.000000,0.000000,0.000000,0.022907,0.000305,-0.018479,4.633148,38.965217,0.716165
4027,1,0.000000,0.000000,0.000000,0.005192,0.007330,-0.021686,4.662379,38.979831,0.818474
4027,2,0.000000,0.000000,0.000000,0.012217,0.002443,-0.023671,4.866998,39.389068,0.409237
4072,1,0.000000,0.000000,0.000000,0.021991,0.007636,-0.021686,4.896229,39.155216,0.409237
4072,2,-0.119641,0.349950,10.162917,0.027031,0.039554,-0.018173,4.866998,39.213680,1.110786
4119,1,-0.043669,0.358325,10.063016,0.032376,0.034972,-0.020922,4.896229,38.745983,0.496931
4119,2,-0.190229,0.343370,10.186246,0.023671,0.034208,-0.019242,4.837767,38.892139,1.154633
4165,1,-0.067597,0.172881,9.824333,0.029169,0.040012,-0.016188,4.370067,39.184448,1.066940
4165,2,-0.035294,0.381057,9.917054,0.019853,0.036805,-0.018479,4.048524,31.131246,0.131541
4211,1,-0.090329,0.428315,9.961919,0.022144,0.035277,-0.018479,3.975446,31.116632,0.000000
4211,2,-0.088534,0.383450,10.071392,0.022755,0.035888,-0.017410,3.814674,31.145864,0.131541
4256,1,0.026321,0.096311,9.842877,0.017104,0.034819,-0.009621,4.048524,29.932767,0.131541
4256,2,0.440279,-0.623929,10.323236,0.013439,0.041539,0.066126,4.574686,39.111370,0.760012
4302,1,-0.557528,1.131207,9.854243,0.026420,0.049633,0.148440,4.253142,39.096755,0.131541
4302,2,-0.904487,1.698904,9.898509,0.012370,0.043982,0.058185,4.238527,38.862903,-0.073078
4348,1,-0.117847,0.412164,10.045669,0.017257,0.038026,-0.023976,4.720842,38.234432,0.292312
4348,2,0.000000,0.000000,0.000000,0.019548,0.002443,-0.018631,4.092370,38.848289,0.409237
4394,1,-0.064606,0.485145,10.150354,0.007330,0.033139,-0.024282,4.165449,38.059047,1.066940
4394,2,-0.101097,0.394218,10.202996,0.046884,0.038485,-0.024129,4.399299,38.395206,0.029231
4440,1,-0.110668,0.513859,9.820743,0.027642,0.041997,-0.024129,4.340836,38.731365,0.774627
4440,2,-0.119641,0.437288,9.994222,0.021533,0.038943,-0.024435,4.296989,39.038291,0.745396
4485,1,-0.107677,0.433699,10.044471,0.025198,0.038943,-0.022144,4.033908,30.897399,-57.877815
4485,2,-0.107677,0.416351,10.078570,0.030696,0.036805,-0.018631,3.814674,31.131246,0.000000
4531,1,-0.119641,0.443869,10.064810,0.003512,0.038790,-0.017104,3.990061,31.145864,-57.863201
4531,2,-0.065204,0.375673,10.043874,0.005345,0.035125,-0.019548,3.756212,30.049694,0.000000
4577,1,-0.105882,0.491127,9.866207,0.004581,0.036957,-0.019395,4.004677,38.935981,0.306928
4577,2,-0.096909,0.386441,9.875778,0.005498,0.005192,-0.017104,4.282373,38.965217,0.000000
4623,1,0.000000,0.000000,0.000000,0.029932,0.007636,-0.021838,4.560070,38.614440,0.058462
4623,2,0.000000,0.000000,0.000000,0.032070,0.000000,-0.020922,4.238527,38.804443,-0.599240
4668,1,0.000000,0.000000,0.000000,0.025351,0.005192,-0.021991,4.267758,38.672904,0.467700
4668,2,0.000000,0.000000,0.000000,0.029932,0.005192,-0.023518,4.530839,38.424438,0.394621
4714,1,-0.249452,0.924228,10.306486,0.031154,0.033903,-0.071166,4.413914,38.658287,0.774627
4714,2,-0.141177,0.599402,10.189835,0.024893,0.034819,-0.105222,4.370067,38.672904,0.409237
4761,1,0.091525,-0.336192,10.080365,0.013134,0.036805,-0.031612,4.282373,38.658287,0.160772
4761,2,-0.111864,0.406780,10.043874,0.013592,0.036346,-0.017715,4.282373,38.599822,-0.043847
4807,1,-0.100499,0.410369,9.923634,0.005651,0.038943,-0.018937,4.296989,38.760597,-0.131541
4807,2,-0.097508,0.457029,9.973285,-0.000916,0.036346,-0.017257,4.355452,38.789825,0.979246
4853,1,-0.098106,0.434297,10.022936,0.025656,0.038026,-0.020922,4.662379,38.658287,0.423853
4853,2,-0.121436,0.458824,10.052846,0.038485,0.039401,-0.017715,4.866998,38.906753,-0.219234
4898,1,0.000000,0.000000,0.000000,0.032070,0.000000,-0.028405,4.326220,38.892139,0.263081
4898,2,-0.210568,0.756132,10.298110,0.024893,0.036346,-0.052687,4.647764,39.082138,0.175387
4944,1,-0.120239,0.128614,9.912268,0.046578,0.036346,-0.062308,4.647764,38.278282,0.394621
4944,2,-0.017946,0.171087,10.001400,0.028253,0.035430,-0.026573,4.589301,38.848289,0.540777
4990,1,-0.095115,0.432503,10.010972,0.016341,0.038637,-0.019700,4.472376,38.526744,-0.029231
4990,2,-0.102293,0.405583,10.066606,0.008858,0.037263,-0.017410,4.720842,38.453666,0.760012
5036,1,-0.083151,0.422931,10.053445,0.009316,0.035277,-0.018937,4.662379,38.877521,0.511546
5036,2,-0.112463,0.406182,10.046865,0.011148,0.035125,-0.020006,4.808536,39.023677,0.029231
5082,1,0.000000,0.000000,0.000000,0.029932,0.000000,-0.017104,4.940076,38.775211,0.190003
5082,2,-0.118445,0.454636,10.014561,0.023366,0.036499,-0.021075,5.173926,38.395206,-0.292312
5127,1,-0.093320,0.406780,10.044471,0.028558,0.036194,-0.019395,4.720842,38.599822,0.847705
5127,2,-0.151346,0.534796,10.079169,0.041386,0.038790,-0.016952,4.457761,39.023677,0.321543
5173,1,-0.111864,0.391227,9.888938,0.030849,0.041997,-0.015272,4.633148,38.526744,0.570009
5173,2,-0.065204,0.439681,9.839287,0.032529,0.042302,-0.017562,4.735457,38.950599,0.716165
5219,1,-0.096909,0.416949,10.085149,0.021991,0.036041,-0.020006,5.100848,39.345218,0.599240
5219,2,-0.125623,0.432503,10.060026,0.016493,0.036041,-0.016952,5.334697,39.155216,0.979246
5265,1,0.000000,0.000000,0.000000,0.018021,0.000000,-0.021228,5.290851,38.395206,0.043847
5265,2,0.000000,0.000000,0.000000,0.017104,0.002443,-0.018631,4.969307,38.526744,0.292312
5310,1,0.000000,0.000000,0.000000,0.020159,0.002749,-0.018937,5.320082,38.672904,0.613856
5310,2,0.000000,0.000000,0.000000,0.021991,0.000305,-0.016493,5.232388,38.848289,0.423853
5357,1,-0.222533,0.196810,9.834502,0.052229,0.044899,-0.018479,5.290851,38.512130,0.657702
5357,2,-0.128016,0.762114,9.835100,0.047495,0.037874,-0.019395,5.276235,38.672904,0.438468
5403,1,-0.125025,0.367896,10.184452,0.035277,0.036805,-0.019242,5.144694,38.029815,0.935399
5403,2,-0.112463,0.412762,10.110275,0.015272,0.037263,-0.020311,5.203157,38.541362,0.789243
5448,1,-0.097508,0.434297,9.994222,0.015577,0.038026,-0.021533,4.779304,38.833675,1.227711
5448,2,-0.105882,0.443270,10.016955,0.014355,0.036957,-0.015424,4.910845,39.052909,1.096171
5494,1,-0.102891,0.417548,10.018749,0.022907,0.035736,-0.018021,5.217772,38.526744,0.277697
5494,2,-0.080758,0.384646,9.990633,0.027184,0.039095,-0.020922,4.910845,38.804443,0.292312
5540,1,-0.098106,0.422333,9.996616,0.026573,0.035430,-0.020922,4.793920,38.614440,1.096171
5540,2,-0.108275,0.433101,10.019348,0.019853,0.041081,-0.018784,4.399299,38.409824,0.847705
5586,1,-0.095115,0.413360,9.991829,0.020769,0.036194,-0.018326,4.428530,39.096755,0.482315
5586,2,-0.091525,0.431306,10.008580,0.018479,0.040623,-0.017410,4.457761,38.965217,0.350775
5632,1,-0.104686,0.444467,9.994821,0.021991,0.037721,-0.020464,4.092370,38.482898,0.599240
5632,2,-0.110070,0.446261,9.979267,0.010843,0.039554,-0.020311,4.647764,38.555976,-0.555393
5678,1,0.000000,0.000000,0.000000,0.027184,0.007636,-0.021533,4.370067,38.322128,0.555393
5678,2,0.000000,0.000000,0.000000,0.012523,0.007636,-0.021380,4.282373,38.716747,0.058462
5723,1,0.000000,0.000000,0.000000,0.007330,0.007330,-0.016188,4.589301,38.877521,0.599240
5723,2,-0.039482,0.269193,10.091731,0.011454,0.034972,-0.017257,4.501607,38.994445,-0.175387
5769,1,-0.123230,0.437288,10.095917,0.019242,0.077274,-0.016493,4.603917,39.111370,0.906168
5769,2,-0.128614,0.466600,10.218549,0.021533,0.033903,-0.019548,4.779304,39.169834,0.643087
5815,1,-0.098106,0.448056,9.975079,0.019700,0.038943,-0.019090,4.779304,38.629055,-0.131541
5815,2,-0.096909,0.438485,9.974482,0.018479,0.037110,-0.020006,4.370067,39.038291,-0.613856
5861,1,-0.069990,0.394816,9.992428,0.026420,0.041539,-0.018784,4.720842,39.082138,0.160772
5861,2,-0.053839,0.562911,10.032507,0.026114,0.037721,-0.017104,4.545454,38.789825,-0.277697
5906,1,-0.055633,0.556331,9.393624,0.022755,0.041997,-0.019853,4.560070,38.745983,-0.102309
5906,2,0.069990,0.360120,9.786046,0.016035,0.032681,-0.018479,4.516223,38.848289,0.146156
5952,1,-0.079561,0.409173,10.106684,0.025045,0.039554,-0.018326,4.516223,38.862903,0.000000
5952,2,-0.091525,0.466600,10.053445,0.018479,0.038485,-0.018479,4.793920,38.892139,-0.496931
5999,1,-0.144766,0.430110,9.967902,0.020617,0.041386,-0.019242,4.296989,39.082138,-0.116925
5999,2,-0.119043,0.433699,10.015160,0.018326,0.041844,-0.019090,4.340836,38.877521,-0.555393
6045,1,-0.090927,0.451047,10.019945,0.024740,0.035430,-0.020769,4.618533,38.585208,-0.380006
6045,2,-0.065204,0.464208,10.006187,0.022144,0.033292,-0.018937,4.735457,38.848289,-0.102309
6091,1,-0.114257,0.408575,10.031910,0.025809,0.035430,-0.017410,4.545454,38.570594,-0.233850
6091,2,-0.115454,0.412762,10.014561,0.021228,0.042302,-0.016646,4.370067,39.374454,-0.073078
6137,1,-0.061615,0.448654,10.009178,0.023976,0.038179,-0.018326,4.238527,38.716747,-0.438468
6137,2,-0.074178,0.425922,10.010972,0.019548,0.041997,-0.021075,4.165449,38.877521,0.073078
6183,1,-0.133998,0.414557,10.007981,0.020464,0.038790,-0.016341,4.735457,39.052909,-0.496931
6183,2,-0.120838,0.436092,10.028919,0.021533,0.041386,-0.019548,4.793920,38.731365,0.058462
6229,1,-0.011964,0.462413,9.961321,0.021686,0.035888,-0.020617,4.545454,38.848289,-0.409237
6229,2,-0.093918,0.437288,9.988241,0.018937,0.037110,-0.017715,4.472376,38.994445,0.233850
6275,1,-0.129811,0.412762,9.994821,0.023518,0.031460,-0.021838,4.691610,39.315990,0.073078
6275,2,-0.101695,0.416351,10.015757,0.021686,0.038026,-0.017562,4.150833,39.257526,0.043847
6321,1,-0.093918,0.443869,10.017552,0.027947,0.040317,-0.019700,4.589301,39.125988,0.496931
6321,2,-0.114855,0.441476,10.033106,0.024282,0.037874,-0.021533,4.238527,38.804443,0.146156
6366,1,-0.117847,0.442074,10.041480,0.020769,0.039706,-0.018021,4.238527,39.169834,-0.263081
6366,2,-0.101097,0.445663,10.032507,0.021533,0.038790,-0.020464,4.253142,39.637531,-0.350775
6412,1,-0.098106,0.442672,10.020544,0.020464,0.037568,-0.020006,4.399299,39.432914,-1.476176
6412,2,-0.088534,0.411566,9.994222,0.021991,0.038026,-0.018173,4.735457,39.462146,-0.394621
6458,1,-0.157926,0.461217,10.021739,0.028711,0.040928,-0.020159,4.662379,39.125988,-0.014616
6458,2,-0.112463,0.430708,9.988241,0.020464,0.035736,-0.020006,4.560070,39.535224,-0.146156
6504,1,-0.110070,0.422931,10.047463,0.025504,0.039401,-0.020769,4.384683,38.935981,-0.584624
6504,2,-0.108275,0.434297,10.005588,0.022297,0.040012,-0.018173,4.779304,39.462146,-0.920783
6551,1,-0.126221,0.398405,10.021142,0.023518,0.040317,-0.017257,4.618533,39.184448,-0.043847
6551,2,-0.097508,0.433699,10.039686,0.023976,0.042913,-0.020617,4.384683,38.892139,0.014616
6597,1,-0.096311,0.324227,9.456436,0.009316,0.045509,-0.021380,4.866998,38.965217,0.058462
6597,2,-0.135793,0.424128,10.170693,0.022297,0.038026,-0.018631,4.925460,38.541362,0.248465
6643,1,-0.031705,0.245863,9.967902,0.022907,0.040470,-0.018784,4.516223,38.409824,0.599240
6643,2,-0.095115,0.494118,9.987045,0.023366,0.037874,-0.020159,4.472376,38.526744,0.496931
6689,1,-0.102891,0.422333,9.933804,0.025656,0.036346,-0.018326,4.443145,38.716747,0.993861
6689,2,-0.106481,0.443270,9.809377,0.023824,0.043677,-0.017104,4.501607,38.599822,0.277697
6735,1,-0.128614,0.423530,10.067802,0.021838,0.076205,-0.015272,4.048524,38.570594,0.087694
6735,2,-0.114855,0.476770,9.981062,0.021380,0.000611,-0.018479,4.019292,39.082138,0.014616
6781,1,-0.122034,0.470788,10.042078,0.025045,0.034056,-0.017104,4.194680,39.301376,0.818474
6781,2,-0.105882,0.364307,10.130614,0.024282,0.036194,-0.019090,4.486992,38.409824,0.233850
6827,1,-0.105284,0.442074,9.998410,0.024435,0.036499,-0.019700,4.457761,38.921367,0.190003
6827,2,-0.092124,0.588036,9.919447,0.024129,0.041844,-0.014355,4.618533,38.892139,0.233850
6872,1,-0.104088,0.436690,10.001999,0.020311,0.037874,-0.018021,4.779304,38.819061,0.891552
6872,2,-0.108873,0.432503,9.836297,0.015882,0.042761,-0.021075,4.238527,38.716747,0.760012
6918,1,-0.040678,0.232702,10.066008,0.025351,0.032070,-0.017410,4.486992,38.877521,0.073078
6918,2,-0.129811,0.567099,9.994821,0.020617,0.037568,-0.017410,4.735457,39.052909,0.204619
6964,1,-0.117847,0.438485,10.028320,0.020617,0.037568,-0.017257,4.852383,38.643669,0.380006
6964,2,-0.126221,0.428913,10.085149,0.022755,0.037874,-0.018326,4.443145,38.073661,0.058462
7010,1,-0.087338,0.410967,9.985848,0.019548,0.039706,-0.020311,4.092370,38.599822,0.409237
7010,2,-0.080758,0.387039,9.929018,0.022297,0.037721,-0.020311,4.881614,38.395206,-0.043847
7056,1,-0.089731,0.466002,10.025330,0.026114,0.036805,-0.021686,4.808536,38.906753,-0.365390
7056,2,-0.133400,0.385244,9.999606,0.026114,0.033903,-0.019090,4.472376,38.745983,-0.233850
7102,1,-0.117248,0.439681,10.025330,0.023671,0.040012,-0.018937,4.413914,38.731365,0.453084
7102,2,-0.092124,0.406780,10.212567,0.017257,0.041233,-0.019090,4.676995,38.541362,0.175387
7149,1,-0.147757,0.379861,10.110872,0.022449,0.034972,-0.017410,4.296989,38.877521,0.321543
7149,2,-0.096311,0.455235,9.893725,0.025198,0.035888,-0.018479,4.691610,38.409824,0.073078
7194,1,-0.084347,0.427119,10.052846,0.021838,0.037721,-0.017410,4.428530,38.497516,1.081555
7194,2,-0.101695,0.421735,10.039088,0.019853,0.041081,-0.017257,4.560070,39.038291,-0.131541
7240,1,-0.114257,0.444467,10.019348,0.024893,0.038179,-0.018479,4.852383,38.585208,-0.745396
7240,2,-0.039482,0.553340,9.783655,0.018326,0.041539,-0.017562,4.896229,38.819061,0.014616
7286,1,-0.092124,0.428913,9.963714,0.017562,0.034972,-0.020006,4.545454,38.643669,0.365390
7286,2,-0.074178,0.437887,9.928420,0.020617,0.041997,-0.019548,4.311605,38.658287,0.219234
7332,1,-0.120838,0.422931,10.023535,0.028405,0.040775,-0.018326,4.384683,38.614440,-0.321543
7332,2,-0.113659,0.448654,9.972089,0.023213,0.041997,-0.017715,4.530839,38.395206,0.336159
7378,1,-0.108873,0.488734,9.937393,0.023213,0.041997,-0.018937,3.873136,38.833675,0.891552
7378,2,-0.080160,0.417548,9.967902,0.024435,0.035430,-0.019548,4.472376,38.731365,0.365390
7424,1,-0.091525,0.376870,10.046865,0.020769,0.038332,-0.018173,4.706226,38.585208,0.818474
7424,2,-0.107677,0.373280,10.046266,0.015730,0.041844,-0.020617,4.223911,38.965217,0.306928
7470,1,-0.072981,0.398405,10.051053,0.018937,0.040775,-0.019700,4.662379,39.096755,-0.380006
7470,2,-0.102891,0.541974,10.219148,0.027947,0.032834,-0.016493,4.837767,38.497516,0.204619
7516,1,-0.159721,0.475573,9.923036,0.021228,0.038790,-0.019242,4.633148,38.775211,-0.102309
7516,2,-0.078963,0.241675,10.377673,0.025656,0.036346,-0.017104,4.370067,38.526744,0.014616
7562,1,-0.078365,0.349950,10.145569,0.016493,0.044593,-0.020006,4.443145,38.862903,0.336159
7562,2,-0.241077,0.307478,10.394422,0.027947,0.040012,-0.019242,3.858521,38.672904,0.628471
7608,1,-0.215354,0.763909,10.097712,0.040623,0.028253,-0.029932,4.633148,38.497516,0.394621
7608,2,-0.596411,2.160120,10.462617,0.023976,0.025962,-0.136223,4.004677,39.009059,0.964630
7653,1,-0.145962,0.427717,10.140185,0.016188,0.035277,-0.017868,4.194680,38.994445,0.014616
7653,2,-0.008973,0.251845,9.940982,0.038026,0.034208,-0.015577,4.194680,38.994445,-0.131541
7699,1,-0.385843,0.833300,10.085747,0.050091,0.030085,0.117439,4.706226,38.643669,0.058462
7699,2,-0.867398,2.400001,8.623734,0.042150,0.023824,0.060323,4.501607,38.541362,-0.131541
7746,1,-0.058624,0.406182,9.979866,0.010537,0.038485,-0.030238,4.983923,38.380588,-0.321543
7746,2,0.284746,0.240479,10.107882,0.008399,0.037721,-0.025045,5.115463,38.336746,-0.438468
7792,1,-0.159721,0.201595,10.009178,0.016646,0.042302,-0.009774,4.209296,38.000583,0.306928
7792,2,0.122632,-0.146560,10.000205,0.018784,0.041539,0.049938,4.136218,37.869045,0.204619
7838,1,-0.165105,0.482752,9.874582,-0.033292,0.048564,-0.026267,4.223911,37.795967,0.540777
7838,2,-0.096909,1.086940,10.155140,-0.167530,0.041997,-0.110261,4.150833,38.015201,0.467700
7884,1,-0.080758,0.440279,9.991829,0.176235,0.026573,-0.302073,4.706226,38.190589,0.204619
7884,2,0.437887,-0.692722,9.656236,0.418443,0.038943,-0.238237,4.866998,38.015201,-0.686934
7930,1,0.436092,0.274576,10.066606,0.083383,0.006720,-0.856433,5.130079,38.599822,0.380006
7930,2,0.251845,0.519841,10.001999,0.127213,-0.010537,-0.738842,5.013154,38.497516,0.496931
7976,1,-0.063410,0.417548,9.848260,0.013744,0.055131,-0.048716,4.940076,37.971351,-0.175387
7976,2,-0.095115,0.332004,9.984053,-0.007636,0.054062,-0.071166,4.983923,38.146739,0.263081
8022,1,-0.078365,-0.053240,9.799208,-0.008858,0.011912,0.410196,4.837767,37.781352,0.453084
8022,2,-0.741775,1.262214,10.821540,0.022297,-0.015119,0.246026,4.837767,38.468284,0.628471
8067,1,-0.126820,0.390030,10.130614,0.055741,0.026114,-0.003360,4.852383,37.985969,0.584624
8067,2,-0.145364,0.424128,9.987045,0.054672,0.028711,-0.013897,5.247004,38.322128,0.277697
8113,1,-0.181256,0.303290,9.964313,0.223271,-0.029169,-0.045357,5.553932,37.152881,0.686934
8113,2,-0.117847,0.200997,10.018749,0.268628,-0.052229,-0.028100,5.451622,37.518268,0.862321
8159,1,0.332004,0.677169,10.064213,-0.132558,0.120493,0.737620,5.115463,38.585208,0.964630
8159,2,-2.282753,-0.153141,9.854243,-0.371101,0.212428,0.888198,4.940076,38.088275,0.950015
8205,1,-1.054637,0.142971,11.601003,0.057727,0.036652,0.058796,4.486992,38.570594,-0.043847
8205,2,-0.291924,0.324826,8.310872,0.146608,0.037263,0.031001,4.238527,38.482898,0.000000
8251,1,0.007777,0.451645,9.893126,0.084299,0.029627,-0.012981,4.501607,38.468284,0.263081
8251,2,-0.052642,0.314058,10.097712,0.149051,0.029322,-0.014050,4.618533,38.468284,0.701549
8297,1,-0.296112,0.370888,10.021142,0.206320,0.038637,0.120646,4.355452,38.833675,0.204619
8297,2,-0.306281,0.567099,10.205987,0.015882,0.030543,0.031001,4.136218,38.819061,0.073078
8344,1,-0.290130,0.114257,10.211970,0.019242,0.009468,-0.091782,4.486992,38.789825,0.540777
8344,2,-0.294317,0.178265,10.354940,-0.285579,0.004429,-0.244193,4.223911,38.526744,0.131541
8390,1,0.166301,0.425922,9.876975,0.050396,0.030849,-0.006872,4.019292,38.745983,-0.423853
8390,2,2.571088,0.922433,10.144970,0.034208,0.037874,0.290008,3.624671,39.199062,-0.321543
8436,1,-1.326222,-0.266202,10.121640,-0.029169,0.000153,0.343612,3.186203,39.622917,-0.526162
8436,2,-1.894517,0.210568,9.743575,-0.026420,0.037263,0.226326,3.054662,39.359836,-0.146156
8482,1,-0.291924,0.579661,9.958331,0.001527,0.037263,-0.022297,3.873136,38.804443,0.000000
8482,2,-0.553938,1.190429,9.997213,0.007330,0.034514,-0.171042,3.843905,38.775211,0.321543
8527,1,-0.201595,0.105882,10.063614,0.001374,0.029627,-0.218690,4.238527,38.409824,0.058462
8527,2,-0.749552,0.231506,10.067204,0.029474,0.038485,-0.380569,3.975446,38.687519,0.160772
8573,1,-0.119641,-0.019741,9.977473,0.169668,0.008399,-1.266324,4.384683,39.535224,1.037708
8573,2,0.458226,0.220140,10.118051,0.192728,0.019242,-1.310306,3.712365,40.324466,-0.029231
8619,1,-0.107079,0.460618,9.896117,0.050855,0.038179,-0.256563,2.221573,42.370651,1.315405
8619,2,-0.376870,-1.914258,9.993026,0.032681,0.035583,-0.148593,2.411576,41.786026,1.183864
8665,1,-0.473779,0.609572,10.284951,-0.219912,0.030696,0.163406,1.783104,41.698333,1.534639
8665,2,-0.045464,0.198006,10.032507,-0.159130,0.049022,0.136987,1.476176,42.326805,1.417714
8711,1,-0.679562,0.464208,9.648460,-0.007789,0.062003,1.442711,1.710026,41.040630,1.432330
8711,2,-0.121436,0.104088,9.801600,-0.056352,0.056047,1.276861,2.543116,40.236774,0.891552
8757,1,-0.236291,0.494118,9.905689,0.021838,0.046731,0.164170,3.800058,39.359836,-0.102309
8757,2,-0.247657,0.339781,10.125229,-0.010690,0.052840,0.134238,4.486992,38.555976,0.219234
8803,1,-0.182453,0.318245,10.028320,0.012065,0.038485,-0.011454,4.866998,39.067523,0.263081
8803,2,-0.226122,0.301496,9.965509,0.015882,0.040164,-0.020617,5.013154,38.979831,0.716165
8848,1,-0.806381,0.566501,10.135997,0.022449,0.051771,-0.124311,4.428530,38.965217,0.233850
8848,2,0.130409,0.323629,9.878769,0.163712,0.052382,-0.611476,5.217772,38.819061,1.344636
8894,1,1.204188,-0.061017,9.963714,0.147829,0.032834,-0.472046,4.750073,40.076004,0.920783
8894,2,-0.196810,0.195015,9.981660,0.053756,0.038026,-0.018937,4.516223,40.558319,0.526162
8941,1,-0.169890,0.145962,10.085149,0.133016,0.035736,-0.204334,4.443145,44.869918,1.490792
8941,2,-0.028714,0.629911,10.046865,0.105374,0.047342,-0.301920,3.668518,42.019878,1.227711
8987,1,-0.421137,0.391825,10.132409,-0.053451,0.026878,-0.213192,1.870798,42.502193,0.745396
8987,2,-0.908674,0.600598,10.101301,-0.006872,0.032376,-0.030085,2.338498,42.239112,1.169249
9033,1,0.083151,0.230309,10.024132,-0.026114,0.040317,0.192575,2.499269,41.347560,0.292312
9033,2,0.053240,0.333201,10.006785,-0.129198,0.038485,0.545961,2.557732,41.011398,0.175387
9079,1,-0.483350,-0.347558,9.987045,-0.182496,0.101251,0.416152,4.092370,39.798305,0.701549
9079,2,-0.077767,0.426521,10.274780,-0.128893,0.075289,0.245873,4.399299,39.520610,0.555393
9125,1,-0.382253,0.154337,10.159328,0.025656,0.036499,-0.046426,4.574686,39.359836,0.321543
9125,2,0.007178,0.543171,10.287343,0.041692,0.054062,-0.124769,4.764689,38.950599,0.657702
9171,1,-0.129811,-0.452842,10.433903,0.577573,-0.157451,-0.347430,5.115463,39.315990,-0.306928
9171,2,-0.546162,-0.228515,10.030115,0.245262,-0.031154,-0.752739,5.232388,39.666763,0.847705
9217,1,-0.139382,-0.010169,10.088140,0.028863,0.031918,-0.840550,2.674657,42.487575,1.023093
9217,2,-0.153739,0.064606,9.751950,-0.007789,0.034056,-0.541074,2.016954,42.896812,1.023093
9263,1,-0.047258,0.160319,9.932009,-0.009774,0.032834,0.031918,1.900029,42.312191,1.549255
9263,2,0.166301,0.342772,9.970891,-0.019395,0.035125,0.167224,1.900029,43.262203,1.081555
9309,1,0.458226,0.381655,10.140783,-0.027642,0.041386,0.768316,1.710026,42.926044,0.496931
9309,2,-1.071985,-0.126221,10.070794,-0.050549,0.044746,0.704786,2.236188,42.429115,1.096171
9355,1,-0.152542,0.268594,9.842278,0.033292,0.056810,0.899499,4.121602,39.988307,0.146156
9355,2,-1.364507,-0.783649,10.337593,-0.073457,0.056352,0.663705,4.866998,39.389068,0.935399
9400,1,-0.166301,0.157328,10.083356,-0.018631,0.049022,-0.006109,5.232388,39.286758,0.584624
9400,2,-0.022732,0.279960,9.935599,-0.003512,0.047342,-0.033292,4.925460,39.082138,-0.073078
9446,1,-0.751945,-0.062213,10.076776,0.203113,0.026420,-0.435241,5.276235,39.418296,0.204619
9446,2,0.668196,0.184846,10.034900,0.197462,0.004887,-0.731511,5.451622,39.637531,0.043847
9492,1,-0.238086,-0.087338,10.043275,0.036957,0.026267,-0.526871,4.121602,40.806781,0.847705
9492,2,-0.398405,-0.265005,9.996017,0.043524,0.047495,-1.033126,3.712365,42.034492,1.037708
9539,1,-0.212363,0.032901,9.949357,-0.009163,0.032223,-0.164934,1.826951,42.823734,0.876937
9539,2,0.613759,0.055633,9.989438,0.003665,0.037110,0.049327,1.578486,42.487575,1.154633
9585,1,0.505484,0.686740,9.966107,-0.080481,0.047342,0.988533,1.403099,42.721427,0.979246
9585,2,0.267398,0.153141,10.021739,-0.131947,0.047953,1.495245,2.396960,37.942123,0.263081
9631,1,-0.254836,0.178864,10.085149,-0.006109,0.053756,0.066584,3.946214,40.061386,0.716165
9631,2,-0.045464,-0.069392,10.307682,-0.039095,0.053909,0.064752,4.633148,39.301376,0.686934
9677,1,0.387039,0.504287,9.464811,0.076816,0.049786,0.099724,4.530839,39.827533,0.935399
9677,2,0.683749,0.083151,10.101900,0.124922,0.045204,-0.251066,5.130079,39.359836,0.847705
9723,1,0.142373,0.050847,10.093524,0.140804,0.065668,-0.469755,5.013154,39.242912,-0.073078
9723,2,-0.353540,-0.947558,9.612567,0.419817,-0.163712,-0.531911,5.232388,39.462146,0.599240
9769,1,-0.045464,0.283549,10.112667,0.057574,0.041539,-0.158061,3.098509,41.902954,1.140017
9769,2,0.082552,-0.499502,10.054043,0.024282,0.032529,-0.171195,2.996200,41.771411,0.526162
9815,1,-0.148953,0.142971,10.030115,-0.056047,0.018937,-0.160963,2.294651,42.414497,1.140017
9815,2,-0.007178,0.319442,10.122838,-0.002596,0.035277,-0.165697,2.426191,42.253726,0.716165
9861,1,-0.474377,0.146560,10.152149,-0.021991,0.036194,0.078191,1.636948,42.282955,0.993861
9861,2,-0.317049,0.216550,10.050454,-0.005803,0.037721,0.038637,1.534639,42.356033,0.584624
9906,1,0.340379,0.610170,10.056437,-0.196699,0.129503,1.105819,3.931599,40.426776,0.803858
9906,2,-1.737787,-1.152144,11.246865,-0.539394,0.223424,0.982882,4.267758,39.637531,0.146156
9952,1,-0.309871,0.437887,9.939786,0.022755,0.042913,-0.005040,4.282373,38.819061,0.774627
9952,2,-0.398405,0.467199,10.023535,0.020006,0.046426,-0.014050,4.720842,39.330604,1.037708
9998,1,-0.474377,0.474975,10.023535,0.015730,0.053298,-0.063683,4.472376,39.213680,0.219234
9998,2,-0.801596,0.829711,9.810574,0.082620,0.034361,-0.292910,4.764689,38.819061,0.496931
10044,1,-0.445663,-0.078963,9.852448,0.323453,-0.086285,-0.975704,4.589301,39.432914,1.476176
10044,2,0.147757,0.136391,10.007981,0.067653,0.038943,-0.865901,3.829290,41.318328,1.110786
10090,1,-0.184846,0.254237,10.184452,-0.001833,0.030391,-0.166003,2.455422,42.414497,0.701549
10090,2,-0.145364,0.299103,10.090533,-0.012370,0.036652,0.008247,2.090032,42.414497,0.394621
10137,1,0.049053,0.229113,10.275978,-0.006567,0.037415,0.620639,1.812336,42.794506,1.271558
10137,2,-0.488136,0.315254,10.459029,-0.067501,0.057116,0.968985,1.651564,42.356033,0.789243
10183,1,-0.191426,0.125623,9.827322,-0.038332,0.060170,0.082161,4.457761,39.608303,3.712365
10183,2,-0.175872,0.245863,10.068401,-0.008858,0.059101,0.106138,5.349313,39.447532,0.701549
10229,1,-0.093918,0.312862,9.835698,0.006261,0.045051,-0.043677,5.042385,39.359836,0.482315
10229,2,-0.244666,0.314058,9.976875,-0.025962,0.060323,-0.078802,4.925460,39.491374,0.350775
10275,1,-0.096311,0.290728,9.924831,0.013592,0.041233,-0.020617,4.808536,39.462146,-0.029231
10275,2,-0.273978,0.254237,9.998410,0.094073,0.026420,-0.150578,4.969307,40.061386,0.526162
10321,1,0.541974,0.072981,10.186246,0.128893,0.036805,-1.667204,3.273896,41.654487,0.219234
10321,2,0.192024,0.312263,10.010972,0.038637,0.037568,-1.050077,2.966969,41.990646,0.672318
10366,1,-0.055633,0.269193,9.939188,0.011148,0.040317,-0.052840,2.572347,42.443729,0.175387
10366,2,0.156132,0.079561,10.182059,0.017868,0.034056,0.012370,2.133879,42.867584,0.380006
10412,1,-0.403191,0.349950,9.812966,0.035583,0.046884,0.849561,2.002338,42.487575,0.628471
10412,2,-0.848256,0.168694,9.772289,-0.045051,0.062919,1.432937,3.449284,41.230632,0.029231
10458,1,-0.126221,0.539581,10.061222,-0.143859,0.105527,0.174249,4.881614,39.593685,-0.131541
10458,2,-0.190828,0.492921,9.863815,0.017104,0.040012,-0.015882,4.852383,39.856765,-0.102309
10504,1,0.326022,0.084347,10.053445,-0.006109,0.064599,-0.074678,5.349313,39.520610,-0.292312
10504,2,0.381655,0.183649,10.324433,0.049175,0.053451,-0.273668,5.100848,39.579071,0.292312
10550,1,0.218943,0.235095,9.978670,0.172875,0.026420,-0.238237,5.115463,39.359836,0.511546
10550,2,-0.171685,-0.431904,9.996616,0.262977,-0.041539,-0.655153,5.437007,39.856765,0.116925
10596,1,0.017348,-0.371486,9.848260,0.063377,0.038790,-0.870025,3.288512,42.458347,1.081555
10596,2,0.165105,0.175872,9.857831,0.007789,0.024893,-0.734260,2.718503,42.809120,1.271558
10641,1,-0.357129,0.431904,10.073185,-0.034056,0.020006,0.061239,2.148495,42.414497,1.695411
10641,2,-0.367896,0.391227,10.295718,-0.013134,0.034208,0.207847,1.797720,42.882198,1.651564
10687,1,0.273380,0.312263,10.261022,-0.043677,0.051924,1.027323,2.733119,41.815261,1.242327
10687,2,-0.917049,-0.697508,9.723236,-0.146455,0.098197,1.376279,3.624671,40.339080,1.023093
10734,1,0.658026,1.497309,10.256236,-0.327118,0.161727,0.525344,4.545454,39.783687,0.526162
10734,2,-0.150150,0.296112,9.930215,0.030085,0.039095,-0.019853,4.750073,39.082138,1.227711
10780,1,-1.088734,1.375873,10.357334,0.013286,0.067042,-0.298866,4.472376,39.827533,1.636948
10780,2,-0.972084,-0.543171,10.077373,-0.011454,0.175166,-0.640950,4.969307,39.593685,1.388483
10826,1,-1.314258,-0.521037,9.958331,0.432340,-0.108123,-1.099710,4.676995,39.681381,1.505408
10826,2,0.276969,0.156132,10.275379,0.119271,0.052993,-1.373530,4.063139,40.938320,1.403099
10872,1,-0.066401,0.107677,10.048659,-0.010079,0.035277,-0.247859,1.841567,43.057586,1.636948
10872,2,0.269791,0.045464,10.091731,-0.043066,0.020464,0.039248,2.294651,42.823734,1.841567
10918,1,-1.088734,0.686740,10.110872,-0.085216,0.031154,1.298394,1.534639,42.531425,1.841567
10918,2,0.455235,0.779462,9.796216,-0.127824,0.068111,1.816560,3.273896,40.602161,1.520023
10964,1,-0.274576,0.139980,10.021739,0.029474,0.044746,0.311541,4.706226,39.432914,0.672318
10964,2,-0.116052,0.257228,10.016955,0.018784,0.037568,-0.012828,4.662379,39.403682,0.555393
11010,1,-0.104686,-0.872184,11.014163,0.332005,-0.062919,-0.468992,4.764689,39.973690,1.330020
11010,2,0.031705,0.988834,9.947563,0.080176,0.032987,-0.726471,3.566209,40.646011,1.008477
11056,1,-0.157926,0.135793,10.063614,0.013439,0.036652,-0.018326,4.530839,40.865245,1.037708
11056,2,0.520439,1.110270,10.152149,-0.038637,0.062461,0.342085,4.486992,40.295234,0.628471
11102,1,0.141177,0.107677,10.786246,-0.122326,0.036194,-0.009316,5.100848,39.564453,0.672318
11102,2,-0.252443,0.477966,9.439686,-0.058948,0.040317,-0.008552,5.188541,39.666763,0.511546
11148,1,-0.147159,0.315254,10.039088,0.023671,0.040317,-0.017715,5.232388,40.266002,1.052324
11148,2,-0.135194,0.334995,10.045070,0.028711,0.036805,-0.018784,5.130079,39.754455,0.935399
11194,1,-0.165703,0.345763,10.003793,0.027184,0.042150,-0.016493,5.100848,39.842151,0.482315
11194,2,-0.165105,0.309871,10.046266,0.023213,0.038332,-0.017257,4.808536,40.266002,0.672318
11239,1,-0.125623,0.345165,10.022936,0.027489,0.038485,-0.019090,4.764689,40.295234,1.417714
11239,2,-0.130409,0.322433,10.015160,0.025504,0.038026,-0.021686,4.764689,39.988307,1.856182
11285,1,-0.164507,0.330210,10.025330,0.025045,0.038332,-0.019700,4.910845,39.652149,0.701549
11285,2,-0.151346,0.321835,10.010374,0.025198,0.037263,-0.020159,4.720842,39.476760,1.373867
11332,1,-0.139980,0.338584,10.021142,0.029932,0.038026,-0.020311,4.443145,39.476760,1.096171
11332,2,-0.130409,0.346361,10.012767,0.038943,0.041081,-0.019242,4.837767,39.403682,1.330020
11378,1,-0.198006,0.320638,10.020544,0.031612,0.037874,-0.024282,4.881614,39.695995,1.330020
11378,2,-0.163908,0.306281,10.020544,0.030849,0.038790,-0.019853,4.706226,39.593685,1.578486
11424,1,-0.111266,0.315853,10.013963,0.025351,0.041233,-0.018784,4.443145,39.549839,1.037708
11424,2,-0.109472,0.328415,10.016955,0.029169,0.036957,-0.017257,4.896229,39.871383,1.140017
11470,1,-0.154935,0.327219,10.002597,0.029627,0.037263,-0.016799,4.808536,40.134464,1.680795
11470,2,-0.174676,0.323629,10.006785,0.026420,0.040164,-0.018784,4.676995,39.885997,0.993861
11516,1,-0.116052,0.339183,10.020544,0.030849,0.038637,-0.019700,5.217772,39.725227,1.140017
11516,2,-0.142373,0.318844,10.031311,0.049633,0.038943,-0.018937,5.013154,39.915229,1.286174
11562,1,-0.368495,0.432503,9.898509,0.012675,0.036346,-0.017410,4.910845,40.046768,1.680795
11562,2,-0.196211,0.386441,9.871590,0.024282,0.035888,-0.014203,4.808536,39.476760,2.206957
11608,1,-0.147757,0.388235,9.805788,0.035430,0.041539,-0.018631,5.261620,39.593685,1.841567
11608,2,-0.136989,0.340977,9.977473,0.033139,0.042455,-0.020311,5.027770,39.505992,1.929260
11654,1,-0.140578,0.259621,10.078570,0.032834,0.036041,-0.018021,4.896229,39.754455,2.046185
11654,2,-0.144766,0.285942,10.036098,0.028253,0.040317,-0.018937,4.413914,40.222156,1.169249
11700,1,-0.126221,0.312862,10.022936,0.026878,0.039248,-0.018631,5.334697,39.827533,1.710026
11700,2,-0.125025,0.310469,10.024731,0.024893,0.035583,-0.020311,5.320082,39.666763,1.315405
11745,1,-0.169890,0.299701,9.998410,0.026267,0.038026,-0.016799,4.969307,39.783687,1.023093
11745,2,-0.293719,0.296112,10.001400,0.024587,0.037568,-0.018479,4.793920,39.900611,1.388483
11791,1,-0.131007,0.297308,10.025927,0.022907,0.040470,-0.019395,4.706226,40.368312,1.125402
11791,2,-0.134596,0.295514,10.008580,0.027031,0.036346,-0.019242,4.896229,40.251388,2.090032
11837,1,-0.175274,0.294915,10.020544,0.026267,0.041386,-0.016799,5.115463,40.061386,1.344636
11837,2,-0.140578,0.303888,9.997213,0.023518,0.037721,-0.016799,4.925460,39.929847,1.476176
11884,1,-0.131605,0.314656,10.030713,0.023518,0.037721,-0.021228,5.100848,39.754455,1.680795
11884,2,-0.142373,0.275175,9.997812,0.023671,0.037110,-0.018173,5.027770,39.491374,0.979246
11930,1,-0.152542,0.288933,9.996616,0.021228,0.037110,-0.018173,5.144694,39.783687,0.950015
11930,2,-0.147159,0.291326,10.030713,0.021838,0.043371,-0.019548,4.633148,39.608303,1.695411
11976,1,-0.119043,0.291924,10.017552,0.028253,0.041233,-0.018784,4.808536,39.608303,1.125402
11976,2,-0.113659,0.293121,10.029517,0.021075,0.038179,-0.019548,5.115463,39.783687,1.330020
12022,1,-0.145364,0.291326,10.030713,0.025809,0.037568,-0.019242,4.735457,39.929847,0.672318
12022,2,-0.141775,0.156132,10.004392,0.023976,0.037263,-0.019853,4.750073,40.002925,0.599240
12068,1,-0.107079,0.285942,10.022338,0.024893,0.038790,-0.021686,4.779304,39.783687,0.818474
12068,2,-0.120838,0.282951,10.036098,0.028711,0.038790,-0.020922,4.457761,39.900611,0.482315
12114,1,-0.146560,0.305683,10.006785,0.022449,0.038332,-0.020769,4.750073,39.666763,1.520023
12114,2,-0.138186,0.302692,10.012168,0.025198,0.038485,-0.022297,4.720842,39.666763,1.505408
12160,1,-0.150748,0.282951,10.037892,0.024129,0.038179,-0.020769,5.203157,39.929847,1.783104
12160,2,-0.146560,0.278764,10.016356,0.024893,0.042302,-0.021075,5.057001,39.418296,1.096171
12206,1,-0.129811,0.449851,9.996017,0.023213,0.038485,-0.018173,4.486992,39.359836,2.586963
12206,2,-0.131605,0.282353,10.016356,0.026267,0.038026,-0.017104,4.267758,39.403682,2.060801
12251,1,-0.135194,0.291326,9.997213,0.022755,0.035583,-0.016188,4.983923,39.885997,1.432330
12251,2,-0.152542,0.314058,10.009178,0.029322,0.038179,-0.017257,4.852383,40.032154,1.388483
12297,1,-0.124427,0.306281,10.016356,0.026267,0.037721,-0.020464,4.296989,39.652149,1.578486
12297,2,-0.120239,0.276371,10.043874,0.023213,0.038790,-0.019700,4.764689,39.593685,1.373867
12343,1,-0.144168,0.256630,10.021142,0.023518,0.037110,-0.018784,4.589301,39.812919,1.227711
12343,2,-0.134596,0.285942,9.998410,0.024893,0.042455,-0.016341,4.472376,39.418296,1.213096
12389,1,-0.129212,0.289532,9.998410,0.021228,0.038943,-0.018326,5.057001,40.061386,1.534639
12389,2,-0.132203,0.299701,10.009776,0.025656,0.039248,-0.018937,5.013154,39.535224,2.016954
12435,1,-0.139980,0.280558,10.037892,0.027184,0.038485,-0.019548,5.320082,39.432914,1.490792
12435,2,-0.139382,0.299701,10.001400,0.024587,0.037721,-0.020311,4.823151,39.637531,2.353113
12482,1,-0.130409,0.300299,10.013963,0.021533,0.035888,-0.021533,5.173926,39.695995,1.885414
12482,2,-0.136989,0.303888,10.009776,0.022297,0.035583,-0.021686,4.779304,39.462146,1.505408
12528,1,-0.138186,0.297906,9.999008,0.022755,0.038943,-0.021380,5.027770,39.315990,1.154633
12528,2,-0.153141,0.285942,9.999606,0.022297,0.037110,-0.022755,4.662379,39.359836,1.037708
12574,1,-0.142971,0.315853,10.003793,0.025656,0.041386,-0.020159,4.676995,39.959075,0.920783
12574,2,-0.123230,0.323031,10.019945,0.023824,0.034972,-0.017715,4.720842,39.681381,0.833090
12620,1,-0.136989,0.294317,10.009178,0.028253,0.036805,-0.021838,4.545454,39.856765,1.563870
12620,2,-0.136391,0.277567,10.003793,0.027489,0.039401,-0.018784,4.633148,39.783687,0.920783
12666,1,-0.117847,0.282353,10.004991,0.024587,0.038790,-0.016952,4.194680,39.856765,0.906168
12666,2,-0.128016,0.263210,10.081561,0.025045,0.039248,-0.015882,4.486992,39.637531,1.432330
12712,1,-0.145364,0.278764,10.101900,0.023976,0.037721,-0.021533,4.413914,39.900611,0.175387
12712,2,-0.150748,0.290728,9.874582,0.023060,0.036957,-0.019090,4.413914,40.105232,1.125402
